thisN,thisTrialN,thisRepN,blockN,run,condition,trial_key,stim_file_pos,stim_pos,noise_pos,marker_init,shape,shape_order,true_div,div_pos,target_pos,valence,target_file,img1_file,img2_file,valence_direction,direction,marker_direction,noise_direction,shape_category,valence_resp.keys,valence_resp.rt,valence_resp.duration,block_start_resp.keys,block_start_resp.rt,block_start_resp.duration,marker.response,marker.rt,slider_resp.keys,slider_resp.rt,slider_resp.duration,submit_resp.keys,submit_resp.rt,submit_resp.duration,blocks.thisRepN,blocks.thisTrialN,blocks.thisN,blocks.thisIndex,trials.thisRepN,trials.thisTrialN,trials.thisN,trials.thisIndex,thisRow.t,notes,valence_instruct.started,valence_image.started,valence_text.started,valence_resp.started,valence_instruct.stopped,blocks.valence_resp.keys,blocks.valence_resp.rt,blocks.valence_resp.duration,block_start.started,block_start_text.started,block_start_resp.started,block_start.stopped,blocks.block_start_resp.keys,blocks.block_start_resp.rt,blocks.block_start_resp.duration,baseline.started,ISI1.started,baseline.stopped,stim.started,target_stim.started,target_stim.stopped,stim.stopped,delay.started,ISI2.started,delay.stopped,task.started,img1.started,img2.started,divider_line.started,slider_line.started,marker.started,slider_resp.started,submit_resp.started,task.stopped,positions,trials.marker.response,trials.marker.rt,trials.slider_resp.keys,trials.slider_resp.rt,trials.slider_resp.duration,trials.submit_resp.keys,trials.submit_resp.rt,trials.submit_resp.duration,anticipation.started,anticipation_text.started,anticipation_text.stopped,anticipation.stopped,feedback.started,no_resp_text.started,three_coin.started,no_resp_text.stopped,three_coin.stopped,feedback.stopped,correct,outcome,one_coin.started,one_coin.stopped,one_cross.started,one_cross.stopped,three_cross.started,three_cross.stopped,block_end.started,block_end_text.started,block_end_resp.started,block_end.stopped,block_outcome,block_bonus,blocks.block_end_resp.keys,blocks.block_end_resp.rt,blocks.block_end_resp.duration,subj,difficulty,sess_type,date,expName,psychopyVersion,frameRate,expStart,
0,0,0,4,2,baseline,138,1.9,-0.02,3.0,-0.148,curv,curv_flat,0.0,0.0,-0.02,rew,input_data/stims/Shape_1.90_3.00.png,input_data/stims/Shape_0.00_2.00.png,input_data/stims/Shape_4.00_2.00.png,1,1,-1.0,1.0,-1,up,54.029762415913865,None,up,1.3552801240002736,None,None,None,['right'],[0.7517194580286741],[0.4153942499542609],up,1.3495017909444869,None,0,0,0,0,0,0,0,18,55.98958604200743,,0.25564437499269843,0.4555788340512663,0.4555788340512663,0.4555788340512663,54.48706795903854,up,54.029762415913865,None,54.49620037502609,54.55677354207728,54.55677354207728,55.91499000007752,up,1.3552801240002736,None,55.97483387507964,0.05974775005597621,57.01733458403032,57.0173740000464,57.05915637500584,58.118146792054176,58.11318225006107,58.113397625042126,0.00022775004617869854,59.60534012503922,59.6065913339844,59.70825579203665,59.70825579203665,59.70825579203665,59.70825579203665,59.70825579203665,59.70825579203665,59.70825579203665,61.06459716707468,"[-0.148, -0.148, -0.148, -0.148, -0.148, -0.148, -0.148, -0.148, -0.148, -0.148, -0.148, -0.148, -0.148, -0.148, -0.148, -0.148, -0.148, -0.148, -0.148, -0.148, -0.148, -0.148, -0.148, -0.148, -0.148, -0.148, -0.148, -0.148, -0.148, -0.148, -0.148, -0.148, -0.148, -0.148, -0.148, -0.148, -0.148, -0.148, -0.148, -0.148, -0.148, -0.148, -0.148, -0.148, -0.148, -0.148, -0.148, -0.148, -0.148, -0.148, -0.148, -0.148, -0.148, -0.148, -0.148, -0.148, -0.148, -0.148, -0.148, -0.148, -0.148, -0.148, -0.148, -0.144, -0.14, -0.136, -0.132, -0.128, -0.124, -0.12, -0.116, -0.112, -0.108, -0.104, -0.1, -0.096, -0.092, -0.088, -0.084, -0.08, -0.076, -0.072, -0.068, -0.064, -0.06, -0.056, -0.052, -0.048, -0.044, -0.04, -0.036, -0.032, -0.028, -0.024, -0.02, -0.016, -0.012, -0.008, -0.004, -0.004, -0.004, -0.004, -0.004, -0.004, -0.004, -0.004, -0.004, -0.004, -0.004, -0.004, -0.004, -0.004, -0.004, -0.004, -0.004, -0.004, -0.004]",None,None,['right'],[0.7517194580286741],[0.4153942499542609],up,1.3495017909444869,None,61.065039584063925,61.07896337506827,61.32877250004094,61.31892750004772,61.3190437090816,61.32877250004094,61.32877250004094,62.362911792006344,62.362911792006344,62.35183754202444,1,5,,,,,,,,,,,,,,,,christina,,B,2026-03-30_10h08.37.458,asymmetry_final_v2,2024.2.4,120,2026-03-30 10h09.01.107589 -0400,
1,1,0,4,2,baseline,155,3.5,0.3,3.0,0.156,flat,flat_curv,0.0,0.0,-0.3,pen,input_data/stims/Shape_3.50_3.00.png,input_data/stims/Shape_4.00_2.00.png,input_data/stims/Shape_0.00_2.00.png,-1,-1,1.0,1.0,1,up,54.029762415913865,None,up,1.3552801240002736,None,None,None,['left'],[0.5300028750207275],[0.563106624991633],up,1.2181365410797298,None,0,0,0,0,0,1,1,35,62.362911792006344,,,,,,,,,,,,,,,,,62.352739667054266,0.0008624159963801503,63.394655958982185,63.394699125085026,63.42728754202835,64.49561712506693,64.48779254208785,64.48805570905097,0.0002859999658539891,65.8800677920226,65.88133183401078,65.94452104205266,65.94452104205266,65.94452104205266,65.94452104205266,65.94452104205266,65.94452104205266,65.94452104205266,67.16869245900307,"[0.156, 0.156, 0.156, 0.156, 0.156, 0.156, 0.156, 0.156, 0.156, 0.156, 0.156, 0.156, 0.156, 0.156, 0.156, 0.156, 0.156, 0.156, 0.156, 0.156, 0.156, 0.156, 0.156, 0.156, 0.156, 0.156, 0.156, 0.156, 0.156, 0.156, 0.156, 0.156, 0.156, 0.156, 0.156, 0.156, 0.156, 0.156, 0.156, 0.156, 0.156, 0.156, 0.156, 0.156, 0.156, 0.156, 0.156, 0.156, 0.152, 0.148, 0.144, 0.14, 0.136, 0.132, 0.128, 0.124, 0.12, 0.116, 0.112, 0.108, 0.104, 0.1, 0.096, 0.092, 0.088, 0.084, 0.08, 0.076, 0.072, 0.068, 0.064, 0.06, 0.056, 0.052, 0.048, 0.044, 0.04, 0.036, 0.032, 0.028, 0.024, 0.02, 0.016, 0.012, 0.008, 0.004, 0.0, -0.004, -0.008, -0.012, -0.016, -0.02, -0.024, -0.028, -0.032, -0.036, -0.036, -0.036, -0.036, -0.036, -0.036, -0.036, -0.036, -0.036, -0.036, -0.036, -0.036, -0.036, -0.036, -0.036]",None,None,['left'],[0.5300028750207275],[0.563106624991633],up,1.2181365410797298,None,67.16902645898517,67.17564187501557,67.42895500001032,67.41925358399749,67.41935362503864,67.42895500001032,,68.42985845904332,,68.41911758400965,1,1,67.42895500001032,68.42985845904332,,,,,,,,,,,,,,christina,,B,2026-03-30_10h08.37.458,asymmetry_final_v2,2024.2.4,120,2026-03-30 10h09.01.107589 -0400,
2,2,0,4,2,baseline,137,1.7,-0.06,3.0,0.236,curv,flat_curv,0.0,0.0,0.06,rew,input_data/stims/Shape_1.70_3.00.png,input_data/stims/Shape_4.00_2.00.png,input_data/stims/Shape_0.00_2.00.png,1,-1,1.0,1.0,-1,up,54.029762415913865,None,up,1.3552801240002736,None,None,None,['left'],[0.6261453740298748],[0.39521904196590185],up,1.1294247079640627,None,0,0,0,0,0,2,2,17,68.42985845904332,,,,,,,,,,,,,,,,,68.41985958407167,0.0007273340597748756,69.51172041706741,69.5117610420566,69.54465737508144,70.56310820905492,70.55285350000486,70.5530429170467,0.00018858304247260094,71.89488483406603,71.89627945900429,71.9586759590311,71.9586759590311,71.9586759590311,71.9586759590311,71.9586759590311,71.9586759590311,71.9586759590311,73.09026483399794,"[0.236, 0.236, 0.236, 0.236, 0.236, 0.236, 0.236, 0.236, 0.236, 0.236, 0.236, 0.236, 0.236, 0.236, 0.236, 0.236, 0.236, 0.236, 0.236, 0.236, 0.236, 0.236, 0.236, 0.236, 0.236, 0.236, 0.236, 0.236, 0.236, 0.236, 0.236, 0.236, 0.236, 0.236, 0.236, 0.236, 0.236, 0.236, 0.236, 0.236, 0.236, 0.236, 0.236, 0.236, 0.236, 0.236, 0.236, 0.236, 0.236, 0.236, 0.236, 0.236, 0.236, 0.236, 0.236, 0.236, 0.232, 0.228, 0.224, 0.22, 0.216, 0.212, 0.208, 0.204, 0.2, 0.196, 0.192, 0.188, 0.184, 0.18, 0.176, 0.172, 0.168, 0.164, 0.16, 0.156, 0.152, 0.148, 0.144, 0.14, 0.136, 0.132, 0.128, 0.124, 0.12, 0.116, 0.112, 0.108, 0.108, 0.108, 0.108, 0.108, 0.108, 0.108, 0.108, 0.108, 0.108, 0.108]",None,None,['left'],[0.6261453740298748],[0.39521904196590185],up,1.1294247079640627,None,73.0905082920799,73.11244795902167,73.37012529198546,73.36331108398736,73.36343008407857,73.37012529198546,73.37012529198546,74.36994954198599,74.36994954198599,74.36384195904247,1,5,,,,,,,,,,,,,,,,christina,,B,2026-03-30_10h08.37.458,asymmetry_final_v2,2024.2.4,120,2026-03-30 10h09.01.107589 -0400,
3,3,0,4,2,baseline,135,1.5,-0.1,3.0,0.252,curv,flat_curv,0.0,0.0,0.1,rew,input_data/stims/Shape_1.50_3.00.png,input_data/stims/Shape_4.00_2.00.png,input_data/stims/Shape_0.00_2.00.png,1,-1,1.0,1.0,-1,up,54.029762415913865,None,up,1.3552801240002736,None,None,None,['left'],[0.6442796239862218],[0.7160674999468029],up,1.560014248942025,None,0,0,0,0,0,3,3,15,74.36994954198599,,,,,,,,,,,,,,,,,74.36468987504486,0.0008264590287581086,75.25657199998386,75.25661812501494,75.28787112503778,76.36288095905911,76.35515254200436,76.35546454205178,0.00032491690944880247,77.69745941704605,77.69873541698325,77.758604709059,77.758604709059,77.758604709059,77.758604709059,77.758604709059,77.758604709059,77.758604709059,79.32982933404855,"[0.252, 0.252, 0.252, 0.252, 0.252, 0.252, 0.252, 0.252, 0.252, 0.252, 0.252, 0.252, 0.252, 0.252, 0.252, 0.252, 0.252, 0.252, 0.252, 0.252, 0.252, 0.252, 0.252, 0.252, 0.252, 0.252, 0.252, 0.252, 0.252, 0.252, 0.252, 0.252, 0.252, 0.252, 0.252, 0.252, 0.252, 0.252, 0.252, 0.252, 0.252, 0.252, 0.252, 0.252, 0.252, 0.252, 0.252, 0.252, 0.252, 0.252, 0.252, 0.252, 0.252, 0.252, 0.252, 0.252, 0.252, 0.248, 0.244, 0.24, 0.236, 0.232, 0.228, 0.224, 0.22, 0.216, 0.212, 0.208, 0.204, 0.2, 0.196, 0.192, 0.188, 0.184, 0.18, 0.176, 0.172, 0.168, 0.164, 0.16, 0.156, 0.152, 0.148, 0.144, 0.14, 0.136, 0.132, 0.128, 0.124, 0.12, 0.116, 0.112, 0.108, 0.104, 0.1, 0.096, 0.092, 0.088, 0.084, 0.08, 0.076, 0.072, 0.068, 0.064, 0.06, 0.056, 0.052, 0.048, 0.044, 0.04, 0.036, 0.036, 0.036, 0.036, 0.036, 0.036, 0.036, 0.036, 0.036, 0.036, 0.036, 0.036, 0.036, 0.036, 0.036, 0.036, 0.036]",None,None,['left'],[0.6442796239862218],[0.7160674999468029],up,1.560014248942025,None,79.3304266249761,79.34018366702367,79.65207395900507,79.64634558407124,79.646414417075,79.65207395900507,79.65207395900507,80.67891266697552,80.67891266697552,80.67062470898964,1,5,,,,,,,,,,,,,,,,christina,,B,2026-03-30_10h08.37.458,asymmetry_final_v2,2024.2.4,120,2026-03-30 10h09.01.107589 -0400,
4,4,0,4,2,baseline,141,2.1,0.02,1.0,0.04,flat,flat_curv,0.0,0.0,-0.02,pen,input_data/stims/Shape_2.10_1.00.png,input_data/stims/Shape_4.00_2.00.png,input_data/stims/Shape_0.00_2.00.png,-1,-1,1.0,-1.0,1,up,54.029762415913865,None,up,1.3552801240002736,None,None,None,"['left', 'left']","[0.3468559579923749, 1.1213890409562737]","[0.4359115830156952, 0.2159195840358734]",up,1.4106257079401985,None,0,0,0,0,0,4,4,21,80.67891266697552,,,,,,,,,,,,,,,,,80.6715114590479,0.0008674580603837967,81.61418708402198,81.61427337501664,81.66591425007209,83.11928654205985,83.114162959042,83.1145020420663,0.00035566603764891624,84.4564640839817,84.45920725003816,84.54562679200899,84.54562679200899,84.54562679200899,84.54562679200899,84.54562679200899,84.54562679200899,84.54562679200899,85.9670041250065,"[0.04, 0.04, 0.04, 0.04, 0.04, 0.04, 0.04, 0.04, 0.04, 0.04, 0.04, 0.04, 0.04, 0.04, 0.04, 0.04, 0.04, 0.04, 0.04, 0.04, 0.04, 0.04, 0.04, 0.04, 0.04, 0.04, 0.04, 0.04, 0.04, 0.04, 0.04, 0.036, 0.032, 0.028, 0.024, 0.02, 0.016, 0.012, 0.008, 0.004, 0.0, -0.004, -0.008, -0.012, -0.016, -0.02, -0.024, -0.028, -0.032, -0.036, -0.04, -0.044, -0.048, -0.052, -0.056, -0.06, -0.064, -0.068, -0.072, -0.076, -0.08, -0.084, -0.088, -0.092, -0.096, -0.1, -0.1, -0.1, -0.1, -0.1, -0.1, -0.1, -0.1, -0.1, -0.1, -0.1, -0.1, -0.1, -0.1, -0.1, -0.1, -0.1, -0.1, -0.1, -0.1, -0.1, -0.1, -0.1, -0.1, -0.1, -0.1, -0.1, -0.1, -0.1, -0.1, -0.1, -0.104, -0.108, -0.112, -0.116, -0.12, -0.124, -0.128, -0.132, -0.136, -0.14, -0.144, -0.148, -0.152, -0.156, -0.16, -0.164, -0.168, -0.172, -0.172, -0.172, -0.172, -0.172, -0.172, -0.172, -0.172]",None,None,"['left', 'left']","[0.3468559579923749, 1.1213890409562737]","[0.4359115830156952, 0.2159195840358734]",up,1.4106257079401985,None,85.96744383405894,85.97429383406416,86.31285991705954,86.3009323340375,86.3011000000406,86.31285991705954,,87.34575350000523,,87.33662879199255,1,1,86.31285991705954,87.34575350000523,,,,,,,,,,,,,,christina,,B,2026-03-30_10h08.37.458,asymmetry_final_v2,2024.2.4,120,2026-03-30 10h09.01.107589 -0400,
5,5,0,4,2,baseline,121,0.1,-0.38,1.0,0.248,curv,flat_curv,0.0,0.0,0.38,rew,input_data/stims/Shape_0.10_1.00.png,input_data/stims/Shape_4.00_2.00.png,input_data/stims/Shape_0.00_2.00.png,1,-1,1.0,-1.0,-1,up,54.029762415913865,None,up,1.3552801240002736,None,None,None,['right'],[0.5802963329479098],[0.4433042909950018],up,1.1162794990232214,None,0,0,0,0,0,5,5,1,87.34575350000523,,,,,,,,,,,,,,,,,87.33748887502588,0.00083837506826967,88.3794155420037,88.37945995898917,88.41157700004987,89.41856254206505,89.41352970898151,89.41382258408703,0.00030704191885888577,90.70572637498844,90.70698279200587,90.76970975007862,90.76970975007862,90.76970975007862,90.76970975007862,90.76970975007862,90.76970975007862,90.76970975007862,91.89752375008538,"[0.248, 0.248, 0.248, 0.248, 0.248, 0.248, 0.248, 0.248, 0.248, 0.248, 0.248, 0.248, 0.248, 0.248, 0.248, 0.248, 0.248, 0.248, 0.248, 0.248, 0.248, 0.248, 0.248, 0.248, 0.248, 0.248, 0.248, 0.248, 0.248, 0.248, 0.248, 0.248, 0.248, 0.248, 0.248, 0.248, 0.248, 0.248, 0.248, 0.248, 0.248, 0.248, 0.248, 0.248, 0.248, 0.248, 0.248, 0.248, 0.248, 0.248, 0.248, 0.248, 0.252, 0.256, 0.26, 0.264, 0.268, 0.272, 0.276, 0.28, 0.284, 0.288, 0.292, 0.296, 0.3, 0.304, 0.308, 0.312, 0.316, 0.32, 0.324, 0.328, 0.332, 0.336, 0.34, 0.344, 0.348, 0.352, 0.356, 0.36, 0.364, 0.368, 0.372, 0.376, 0.38, 0.384, 0.388, 0.392, 0.396, 0.396, 0.396, 0.396, 0.396, 0.396, 0.396, 0.396, 0.396, 0.396, 0.396, 0.396]",None,None,['right'],[0.5802963329479098],[0.4433042909950018],up,1.1162794990232214,None,91.89783241704572,91.90447700000368,92.15442704199813,92.14730966708157,92.14741299999878,92.15442704199813,92.15442704199813,93.15419833408669,93.15419833408669,93.14756291708909,1,5,,,,,,,,,,,,,,,,christina,,B,2026-03-30_10h08.37.458,asymmetry_final_v2,2024.2.4,120,2026-03-30 10h09.01.107589 -0400,
6,6,0,4,2,baseline,154,3.5,0.3,3.0,0.068,flat,curv_flat,0.0,0.0,0.3,pen,input_data/stims/Shape_3.50_3.00.png,input_data/stims/Shape_0.00_2.00.png,input_data/stims/Shape_4.00_2.00.png,-1,1,1.0,1.0,1,up,54.029762415913865,None,up,1.3552801240002736,None,None,None,"['left', 'right']","[0.3334832499967888, 0.6456078329356387]","[0.1912696659564972, 0.9119803750654683]",up,1.6298173329560086,None,0,0,0,0,0,6,6,34,93.15419833408669,,,,,,,,,,,,,,,,,93.1484205420129,0.0008469580207020044,94.19037149997894,94.19041433406528,94.22288983408362,95.30317974998616,95.2978699170053,95.29818587505724,0.00032308301888406277,96.74013062508311,96.74136041698512,96.79725912504364,96.79725912504364,96.79725912504364,96.79725912504364,96.79725912504364,96.79725912504364,96.79725912504364,98.43090933398344,"[0.068, 0.068, 0.068, 0.068, 0.068, 0.068, 0.068, 0.068, 0.068, 0.068, 0.068, 0.068, 0.068, 0.068, 0.068, 0.068, 0.068, 0.068, 0.068, 0.068, 0.068, 0.068, 0.068, 0.068, 0.068, 0.068, 0.068, 0.068, 0.068, 0.068, 0.068, 0.068, 0.068, 0.068, 0.068, 0.064, 0.06, 0.056, 0.052, 0.048, 0.044, 0.04, 0.036, 0.032, 0.028, 0.024, 0.02, 0.016, 0.012, 0.008, 0.004, 0.0, 0.0, 0.0, 0.0, 0.0, 0.0, 0.0, 0.0, 0.0, 0.0, 0.0, 0.0, 0.0, 0.004, 0.008, 0.012, 0.016, 0.02, 0.024, 0.028, 0.032, 0.036, 0.04, 0.044, 0.048, 0.052, 0.056, 0.06, 0.064, 0.068, 0.072, 0.076, 0.08, 0.084, 0.088, 0.092, 0.096, 0.1, 0.104, 0.108, 0.112, 0.116, 0.12, 0.124, 0.128, 0.132, 0.136, 0.14, 0.144, 0.148, 0.152, 0.156, 0.16, 0.164, 0.168, 0.172, 0.176, 0.18, 0.184, 0.188, 0.192, 0.196, 0.2, 0.204, 0.208, 0.212, 0.216, 0.22, 0.224, 0.228, 0.232, 0.236, 0.24, 0.244, 0.248, 0.252, 0.256, 0.26, 0.264, 0.268, 0.272, 0.276, 0.28, 0.284, 0.288, 0.288, 0.288, 0.288, 0.288, 0.288, 0.288, 0.288, 0.288]",None,None,"['left', 'right']","[0.3334832499967888, 0.6456078329356387]","[0.1912696659564972, 0.9119803750654683]",up,1.6298173329560086,None,98.43126433400903,98.43778224999551,98.68826204200741,98.68074837501626,98.6808690840844,98.68826204200741,,99.68745791702531,,99.68065470899455,1,1,98.68826204200741,99.68745791702531,,,,,,,,,,,,,,christina,,B,2026-03-30_10h08.37.458,asymmetry_final_v2,2024.2.4,120,2026-03-30 10h09.01.107589 -0400,
7,7,0,4,2,baseline,132,1.3,-0.14,3.0,-0.008,curv,curv_flat,0.0,0.0,-0.14,rew,input_data/stims/Shape_1.30_3.00.png,input_data/stims/Shape_0.00_2.00.png,input_data/stims/Shape_4.00_2.00.png,1,1,-1.0,1.0,-1,up,54.029762415913865,None,up,1.3552801240002736,None,None,None,"['left', 'left', 'right']","[0.46202783298213035, 1.213849124033004, 1.7391506240237504]","[0.4911264160182327, 0.14410466700792313, 0.29217658401466906]",up,2.088238290976733,None,0,0,0,0,0,7,7,12,99.68745791702531,,,,,,,,,,,,,,,,,99.68168379203416,0.001006874954327941,100.57358233397827,100.57362270902377,100.60503158404026,101.65172254201025,101.64645879203454,101.64679279201664,0.0003482089377939701,103.0387187920278,103.03992254205514,103.10445283399895,103.10445283399895,103.10445283399895,103.10445283399895,103.10445283399895,103.10445283399895,103.10445283399895,105.20435504207853,"[-0.008, -0.008, -0.008, -0.008, -0.008, -0.008, -0.008, -0.008, -0.008, -0.008, -0.008, -0.008, -0.008, -0.008, -0.008, -0.008, -0.008, -0.008, -0.008, -0.008, -0.008, -0.008, -0.008, -0.008, -0.008, -0.008, -0.008, -0.008, -0.008, -0.008, -0.008, -0.008, -0.008, -0.008, -0.008, -0.008, -0.008, -0.008, -0.012, -0.016, -0.02, -0.024, -0.028, -0.032, -0.036, -0.04, -0.044, -0.048, -0.052, -0.056, -0.06, -0.064, -0.068, -0.072, -0.076, -0.08, -0.084, -0.088, -0.092, -0.096, -0.1, -0.104, -0.108, -0.112, -0.116, -0.12, -0.124, -0.128, -0.132, -0.136, -0.14, -0.144, -0.148, -0.152, -0.156, -0.16, -0.164, -0.164, -0.164, -0.164, -0.164, -0.164, -0.164, -0.164, -0.164, -0.164, -0.164, -0.164, -0.164, -0.164, -0.164, -0.164, -0.164, -0.164, -0.164, -0.164, -0.164, -0.164, -0.164, -0.164, -0.164, -0.164, -0.164, -0.164, -0.168, -0.172, -0.176, -0.18, -0.184, -0.188, -0.192, -0.196, -0.2, -0.204, -0.208, -0.208, -0.208, -0.208, -0.208, -0.208, -0.208, -0.208, -0.208, -0.208, -0.208, -0.208, -0.208, -0.208, -0.208, -0.208, -0.208, -0.208, -0.208, -0.208, -0.208, -0.208, -0.208, -0.208, -0.208, -0.208, -0.208, -0.208, -0.208, -0.208, -0.208, -0.208, -0.208, -0.204, -0.2, -0.196, -0.192, -0.188, -0.184, -0.18, -0.176, -0.172, -0.168, -0.164, -0.16, -0.156, -0.152, -0.148, -0.144, -0.14, -0.136, -0.132, -0.128, -0.124, -0.12, -0.116, -0.112, -0.108, -0.108, -0.108, -0.108, -0.108, -0.108, -0.108]",None,None,"['left', 'left', 'right']","[0.46202783298213035, 1.213849124033004, 1.7391506240237504]","[0.4911264160182327, 0.14410466700792313, 0.29217658401466906]",up,2.088238290976733,None,105.20484104205389,105.21245600003749,105.46361983404495,105.45268062502146,105.45277633401565,105.46361983404495,105.46361983404495,106.47086554206908,106.47086554206908,106.46430466708262,1,5,,,,,,,,,,,,,,,,christina,,B,2026-03-30_10h08.37.458,asymmetry_final_v2,2024.2.4,120,2026-03-30 10h09.01.107589 -0400,
8,8,0,4,2,baseline,139,1.9,-0.02,3.0,-0.032,curv,flat_curv,0.0,0.0,0.02,rew,input_data/stims/Shape_1.90_3.00.png,input_data/stims/Shape_4.00_2.00.png,input_data/stims/Shape_0.00_2.00.png,1,-1,-1.0,1.0,-1,up,54.029762415913865,None,up,1.3552801240002736,None,None,None,None,,,up,1.4564940829295665,None,0,0,0,0,0,8,8,19,106.47086554206908,,,,,,,,,,,,,,,,,106.4652787920786,0.0009562500054016709,107.55729508399963,107.55735058407299,107.59029775008094,108.67964729201049,108.67247241700534,108.67279625008814,0.0003384581068530679,109.96481337503064,109.96604083408602,110.02679504198022,110.02679504198022,110.02679504198022,110.02679504198022,110.02679504198022,110.02679504198022,110.02679504198022,111.49976620904636,"[-0.032, -0.032, -0.032, -0.032, -0.032, -0.032, -0.032, -0.032, -0.032, -0.032, -0.032, -0.032, -0.032, -0.032, -0.032, -0.032, -0.032, -0.032, -0.032, -0.032, -0.032, -0.032, -0.032, -0.032, -0.032, -0.032, -0.032, -0.032, -0.032, -0.032, -0.032, -0.032, -0.032, -0.032, -0.032, -0.032, -0.032, -0.032, -0.032, -0.032, -0.032, -0.032, -0.032, -0.032, -0.032, -0.032, -0.032, -0.032, -0.032, -0.032, -0.032, -0.032, -0.032, -0.032, -0.032, -0.032, -0.032, -0.032, -0.032, -0.032, -0.032, -0.032, -0.032, -0.032, -0.032, -0.032, -0.032, -0.032, -0.032, -0.032, -0.032, -0.032, -0.032, -0.032, -0.032, -0.032, -0.032, -0.032, -0.032, -0.032, -0.032, -0.032, -0.032, -0.032, -0.032, -0.032, -0.032, -0.032, -0.032, -0.032, -0.032, -0.032, -0.032, -0.032, -0.032, -0.032, -0.032, -0.032, -0.032, -0.032, -0.032, -0.032, -0.032, -0.032, -0.032, -0.032, -0.032, -0.032, -0.032, -0.032, -0.032, -0.032, -0.032, -0.032, -0.032, -0.032, -0.032, -0.032, -0.032, -0.032, -0.032, -0.032, -0.032, -0.032, -0.032, -0.032, -0.032, -0.032, -0.032, -0.032, -0.032, -0.032, -0.032, -0.032, -0.032, -0.032, -0.032, -0.032]",None,None,None,,,up,1.4564940829295665,None,111.50032875000034,111.51326666702516,111.78602220898028,111.75314649997745,111.77810900006443,111.78602220898028,,112.78687850001734,,112.78056995908264,0,-1,,,111.78602220898028,112.78687850001734,,,,,,,,,,,,christina,,B,2026-03-30_10h08.37.458,asymmetry_final_v2,2024.2.4,120,2026-03-30 10h09.01.107589 -0400,
9,9,0,4,2,baseline,157,3.7,0.34,1.0,-0.248,flat,flat_curv,0.0,0.0,-0.34,pen,input_data/stims/Shape_3.70_1.00.png,input_data/stims/Shape_4.00_2.00.png,input_data/stims/Shape_0.00_2.00.png,-1,-1,-1.0,-1.0,1,up,54.029762415913865,None,up,1.3552801240002736,None,None,None,"['left', 'left']","[0.44629304099362344, 0.9549979158909991]","[0.21540595800615847, 0.19993904104921967]",up,1.2595269159646705,None,0,0,0,0,0,9,9,37,112.78687850001734,,,,,,,,,,,,,,,,,112.7815075420076,0.0009180830093100667,113.77342687500641,113.77347075007856,113.80451404198539,114.81268283398822,114.80557416705415,114.80583737499546,0.00026833394076675177,116.14782725006808,116.14921800000593,116.21945779200178,116.21945779200178,116.21945779200178,116.21945779200178,116.21945779200178,116.21945779200178,116.21945779200178,117.48806812497787,"[-0.248, -0.248, -0.248, -0.248, -0.248, -0.248, -0.248, -0.248, -0.248, -0.248, -0.248, -0.248, -0.248, -0.248, -0.248, -0.248, -0.248, -0.248, -0.248, -0.248, -0.248, -0.248, -0.248, -0.248, -0.248, -0.248, -0.248, -0.248, -0.248, -0.248, -0.248, -0.248, -0.248, -0.248, -0.248, -0.248, -0.248, -0.248, -0.248, -0.248, -0.248, -0.248, -0.248, -0.248, -0.248, -0.252, -0.256, -0.26, -0.264, -0.268, -0.272, -0.276, -0.28, -0.284, -0.288, -0.292, -0.296, -0.3, -0.304, -0.308, -0.312, -0.312, -0.312, -0.312, -0.312, -0.312, -0.312, -0.312, -0.312, -0.312, -0.312, -0.312, -0.312, -0.312, -0.312, -0.312, -0.312, -0.312, -0.312, -0.312, -0.312, -0.312, -0.312, -0.312, -0.312, -0.316, -0.32, -0.324, -0.328, -0.332, -0.336, -0.34, -0.344, -0.348, -0.352, -0.356, -0.36, -0.364, -0.368, -0.372, -0.372, -0.372, -0.372, -0.372, -0.372, -0.372, -0.372, -0.372, -0.372, -0.372, -0.372]",None,None,"['left', 'left']","[0.44629304099362344, 0.9549979158909991]","[0.21540595800615847, 0.19993904104921967]",up,1.2595269159646705,None,117.48858383402694,117.49551354208961,117.74596454203129,117.73591708403546,117.73735858406872,117.74596454203129,,118.79687533399556,,118.78616116708145,1,1,117.74596454203129,118.79687533399556,,,,,,,,,,,,,,christina,,B,2026-03-30_10h08.37.458,asymmetry_final_v2,2024.2.4,120,2026-03-30 10h09.01.107589 -0400,
10,10,0,4,2,baseline,147,2.7,0.14,3.0,0.328,flat,flat_curv,0.0,0.0,-0.14,pen,input_data/stims/Shape_2.70_3.00.png,input_data/stims/Shape_4.00_2.00.png,input_data/stims/Shape_0.00_2.00.png,-1,-1,1.0,1.0,1,up,54.029762415913865,None,up,1.3552801240002736,None,None,None,['left'],[0.5627729990519583],[1.6034212920349091],up,2.240603498998098,None,0,0,0,0,0,10,10,27,118.79687533399556,,,,,,,,,,,,,,,,,118.78683700005058,0.0006694160401821136,119.87886479205918,119.8789427500451,119.90960825001821,120.95357658399735,120.94802550005261,120.9484864170663,0.0005324590019881725,122.3405082920799,122.34183708403725,122.4174959170632,122.4174959170632,122.4174959170632,122.4174959170632,122.4174959170632,122.4174959170632,122.4174959170632,124.66479070903733,"[0.328, 0.328, 0.328, 0.328, 0.328, 0.328, 0.328, 0.328, 0.328, 0.328, 0.328, 0.328, 0.328, 0.328, 0.328, 0.328, 0.328, 0.328, 0.328, 0.328, 0.328, 0.328, 0.328, 0.328, 0.328, 0.328, 0.328, 0.328, 0.328, 0.328, 0.328, 0.328, 0.328, 0.328, 0.328, 0.328, 0.328, 0.328, 0.328, 0.328, 0.328, 0.328, 0.328, 0.328, 0.328, 0.328, 0.328, 0.328, 0.328, 0.324, 0.32, 0.316, 0.312, 0.308, 0.304, 0.3, 0.296, 0.292, 0.288, 0.284, 0.28, 0.276, 0.272, 0.268, 0.264, 0.26, 0.256, 0.252, 0.248, 0.244, 0.24, 0.236, 0.232, 0.228, 0.224, 0.22, 0.216, 0.212, 0.208, 0.204, 0.2, 0.196, 0.192, 0.188, 0.184, 0.18, 0.176, 0.172, 0.168, 0.164, 0.16, 0.156, 0.152, 0.148, 0.144, 0.14, 0.136, 0.132, 0.128, 0.124, 0.12, 0.116, 0.112, 0.108, 0.104, 0.1, 0.096, 0.092, 0.088, 0.084, 0.08, 0.076, 0.072, 0.068, 0.064, 0.06, 0.056, 0.052, 0.048, 0.044, 0.04, 0.036, 0.032, 0.028, 0.024, 0.02, 0.016, 0.012, 0.008, 0.004, 0.0, -0.004, -0.008, -0.012, -0.016, -0.02, -0.024, -0.028, -0.032, -0.036, -0.04, -0.044, -0.048, -0.052, -0.056, -0.06, -0.064, -0.068, -0.072, -0.076, -0.08, -0.084, -0.088, -0.092, -0.096, -0.1, -0.104, -0.108, -0.112, -0.116, -0.12, -0.124, -0.128, -0.132, -0.136, -0.14, -0.144, -0.148, -0.152, -0.156, -0.16, -0.164, -0.168, -0.172, -0.176, -0.18, -0.184, -0.188, -0.192, -0.196, -0.2, -0.204, -0.208, -0.212, -0.212, -0.212, -0.212, -0.212, -0.212, -0.212]",None,None,['left'],[0.5627729990519583],[1.6034212920349091],up,2.240603498998098,None,124.6652115000179,124.67972308408935,124.93043295899406,124.92048541700933,124.92058625002392,124.93043295899406,,126.00106966705061,,125.99619866698049,1,1,124.93043295899406,126.00106966705061,,,,,,,,,,,,,,christina,,B,2026-03-30_10h08.37.458,asymmetry_final_v2,2024.2.4,120,2026-03-30 10h09.01.107589 -0400,
11,11,0,4,2,baseline,126,0.7,-0.26,1.0,-0.208,curv,curv_flat,0.0,0.0,-0.26,rew,input_data/stims/Shape_0.70_1.00.png,input_data/stims/Shape_0.00_2.00.png,input_data/stims/Shape_4.00_2.00.png,1,1,-1.0,-1.0,-1,up,54.029762415913865,None,up,1.3552801240002736,None,None,None,['right'],[1.5720411249203607],[0.13516379101201892],up,1.8000882499618456,None,0,0,0,0,0,11,11,6,126.00106966705061,,,,,,,,,,,,,,,,,125.99670625000726,0.0004951250739395618,126.9386312920833,126.93867675005458,126.99289116705768,128.47155183402356,128.46651212498546,128.46682095900178,0.000321459025144577,129.80883312504739,129.81011262501124,129.9311856670538,129.9311856670538,129.9311856670538,129.9311856670538,129.9311856670538,129.9311856670538,129.9311856670538,131.74069837504067,"[-0.208, -0.208, -0.208, -0.208, -0.208, -0.208, -0.208, -0.208, -0.208, -0.208, -0.208, -0.208, -0.208, -0.208, -0.208, -0.208, -0.208, -0.208, -0.208, -0.208, -0.208, -0.208, -0.208, -0.208, -0.208, -0.208, -0.208, -0.208, -0.208, -0.208, -0.208, -0.208, -0.208, -0.208, -0.208, -0.208, -0.208, -0.208, -0.208, -0.208, -0.208, -0.208, -0.208, -0.208, -0.208, -0.208, -0.208, -0.208, -0.208, -0.208, -0.208, -0.208, -0.208, -0.208, -0.208, -0.208, -0.208, -0.208, -0.208, -0.208, -0.208, -0.208, -0.208, -0.208, -0.208, -0.208, -0.208, -0.208, -0.208, -0.208, -0.208, -0.208, -0.208, -0.208, -0.208, -0.208, -0.208, -0.208, -0.208, -0.208, -0.208, -0.208, -0.208, -0.208, -0.208, -0.208, -0.208, -0.208, -0.208, -0.208, -0.208, -0.208, -0.208, -0.208, -0.208, -0.208, -0.208, -0.208, -0.208, -0.208, -0.208, -0.208, -0.208, -0.208, -0.208, -0.208, -0.208, -0.208, -0.208, -0.208, -0.208, -0.208, -0.208, -0.208, -0.208, -0.208, -0.208, -0.208, -0.204, -0.2, -0.196, -0.192, -0.188, -0.184, -0.18, -0.176, -0.176, -0.176, -0.176, -0.176, -0.176, -0.176, -0.176, -0.176]",None,None,['right'],[1.5720411249203607],[0.13516379101201892],up,1.8000882499618456,None,131.7412442920031,131.75028091704007,132.01376995898318,132.0023163750302,132.00242766703013,132.01376995898318,132.01376995898318,133.24708800006192,133.24708800006192,133.23867583402898,1,5,,,,,,,,,,,,,,,,christina,,B,2026-03-30_10h08.37.458,asymmetry_final_v2,2024.2.4,120,2026-03-30 10h09.01.107589 -0400,
12,12,0,4,2,baseline,152,3.3,0.26,3.0,-0.048,flat,curv_flat,0.0,0.0,0.26,pen,input_data/stims/Shape_3.30_3.00.png,input_data/stims/Shape_0.00_2.00.png,input_data/stims/Shape_4.00_2.00.png,-1,1,-1.0,1.0,1,up,54.029762415913865,None,up,1.3552801240002736,None,None,None,['right'],[0.6366804580902681],[1.3639846669975668],up,2.208056250005029,None,0,0,0,0,0,12,12,32,133.24708800006192,,,,,,,,,,,,,,,,,133.23947262507863,0.0007915419992059469,134.18158974999096,134.18169795908034,134.22607141698245,135.27952237508725,135.27193795901258,135.2723257089965,0.0004455000162124634,136.6645897499984,136.66691541706678,136.78411624999717,136.78411624999717,136.78411624999717,136.78411624999717,136.78411624999717,136.78411624999717,136.78411624999717,139.0029427499976,"[-0.048, -0.048, -0.048, -0.048, -0.048, -0.048, -0.048, -0.048, -0.048, -0.048, -0.048, -0.048, -0.048, -0.048, -0.048, -0.048, -0.048, -0.048, -0.048, -0.048, -0.048, -0.048, -0.048, -0.048, -0.048, -0.048, -0.048, -0.048, -0.048, -0.048, -0.048, -0.048, -0.048, -0.048, -0.048, -0.048, -0.048, -0.048, -0.048, -0.048, -0.048, -0.048, -0.048, -0.048, -0.048, -0.048, -0.048, -0.044, -0.04, -0.036, -0.032, -0.028, -0.024, -0.02, -0.016, -0.012, -0.008, -0.004, 0.0, 0.004, 0.008, 0.012, 0.016, 0.02, 0.024, 0.028, 0.032, 0.036, 0.04, 0.044, 0.048, 0.052, 0.056, 0.06, 0.064, 0.068, 0.072, 0.076, 0.08, 0.084, 0.088, 0.092, 0.096, 0.1, 0.104, 0.108, 0.112, 0.116, 0.12, 0.124, 0.128, 0.132, 0.136, 0.14, 0.144, 0.148, 0.152, 0.156, 0.16, 0.164, 0.168, 0.172, 0.176, 0.18, 0.184, 0.188, 0.192, 0.196, 0.2, 0.204, 0.208, 0.212, 0.216, 0.22, 0.224, 0.228, 0.232, 0.236, 0.24, 0.244, 0.248, 0.252, 0.256, 0.26, 0.264, 0.268, 0.272, 0.276, 0.276, 0.276, 0.276, 0.276, 0.276, 0.276, 0.276, 0.276, 0.276, 0.276, 0.276, 0.276, 0.276, 0.276, 0.276, 0.276, 0.276]",None,None,['right'],[0.6366804580902681],[1.3639846669975668],up,2.208056250005029,None,139.00366083404515,139.0140111250803,139.28054412500933,139.26902587502263,139.269206417026,139.28054412500933,,140.2805542499991,,140.27078845899086,1,1,139.28054412500933,140.2805542499991,,,,,,,,,,,,,,christina,,B,2026-03-30_10h08.37.458,asymmetry_final_v2,2024.2.4,120,2026-03-30 10h09.01.107589 -0400,
13,13,0,4,2,baseline,128,0.9,-0.22,3.0,-0.092,curv,curv_flat,0.0,0.0,-0.22,rew,input_data/stims/Shape_0.90_3.00.png,input_data/stims/Shape_0.00_2.00.png,input_data/stims/Shape_4.00_2.00.png,1,1,-1.0,1.0,-1,up,54.029762415913865,None,up,1.3552801240002736,None,None,None,['left'],[0.5825814990093932],[0.4436848749173805],up,1.1581701239338145,None,0,0,0,0,0,13,13,8,140.2805542499991,,,,,,,,,,,,,,,,,140.27189020905644,0.0010911249555647373,141.16380025004037,141.163854500046,141.21717275003903,142.39748908404727,142.39056824997533,142.39083512499928,0.000282290973700583,143.68281333404593,143.68410116701853,143.77924904203974,143.77924904203974,143.77924904203974,143.77924904203974,143.77924904203974,143.77924904203974,143.77924904203974,144.9423146250192,"[-0.092, -0.092, -0.092, -0.092, -0.092, -0.092, -0.092, -0.092, -0.092, -0.092, -0.092, -0.092, -0.092, -0.092, -0.092, -0.092, -0.092, -0.092, -0.092, -0.092, -0.092, -0.092, -0.092, -0.092, -0.092, -0.092, -0.092, -0.092, -0.092, -0.092, -0.092, -0.092, -0.092, -0.092, -0.092, -0.092, -0.092, -0.092, -0.092, -0.092, -0.092, -0.092, -0.092, -0.092, -0.092, -0.092, -0.092, -0.092, -0.092, -0.092, -0.092, -0.092, -0.092, -0.092, -0.096, -0.1, -0.104, -0.108, -0.112, -0.116, -0.12, -0.124, -0.128, -0.132, -0.136, -0.14, -0.144, -0.148, -0.152, -0.156, -0.16, -0.164, -0.168, -0.172, -0.176, -0.18, -0.184, -0.188, -0.192, -0.196, -0.2, -0.204, -0.208, -0.212, -0.216, -0.22, -0.224, -0.228, -0.232, -0.236, -0.24, -0.244, -0.248, -0.248, -0.248, -0.248, -0.248, -0.248, -0.248, -0.248, -0.248, -0.248, -0.248, -0.248, -0.248, -0.248]",None,None,['left'],[0.5825814990093932],[0.4436848749173805],up,1.1581701239338145,None,144.9425442920765,144.94993912498467,145.21392645908054,145.20227800006978,145.20241020899266,145.21392645908054,145.21392645908054,146.22140729206149,146.22140729206149,146.2146775840083,1,5,,,,,,,,,,,,,,,,christina,,B,2026-03-30_10h08.37.458,asymmetry_final_v2,2024.2.4,120,2026-03-30 10h09.01.107589 -0400,
14,14,0,4,2,baseline,148,2.9,0.18,3.0,-0.092,flat,curv_flat,0.0,0.0,0.18,pen,input_data/stims/Shape_2.90_3.00.png,input_data/stims/Shape_0.00_2.00.png,input_data/stims/Shape_4.00_2.00.png,-1,1,-1.0,1.0,1,up,54.029762415913865,None,up,1.3552801240002736,None,None,None,['right'],[0.42138341604731977],[1.1473134589614347],up,1.6292385410051793,None,0,0,0,0,0,14,14,28,146.22140729206149,,,,,,,,,,,,,,,,,146.2157220840454,0.0010219169780611992,147.10768358397763,147.10773250006605,147.14375154208392,148.2025307500735,148.19755500007886,148.197824709001,0.000276208040304482,149.53977595898323,149.5410412090132,149.60348775004968,149.60348775004968,149.60348775004968,149.60348775004968,149.60348775004968,149.60348775004968,149.60348775004968,151.2416162090376,"[-0.092, -0.092, -0.092, -0.092, -0.092, -0.092, -0.092, -0.092, -0.092, -0.092, -0.092, -0.092, -0.092, -0.092, -0.092, -0.092, -0.092, -0.092, -0.092, -0.092, -0.092, -0.092, -0.092, -0.092, -0.092, -0.092, -0.092, -0.092, -0.092, -0.092, -0.092, -0.092, -0.092, -0.092, -0.092, -0.092, -0.092, -0.092, -0.092, -0.088, -0.084, -0.08, -0.076, -0.072, -0.068, -0.064, -0.06, -0.056, -0.052, -0.048, -0.044, -0.04, -0.036, -0.032, -0.028, -0.024, -0.02, -0.016, -0.012, -0.008, -0.004, 0.0, 0.004, 0.008, 0.012, 0.016, 0.02, 0.024, 0.028, 0.032, 0.036, 0.04, 0.044, 0.048, 0.052, 0.056, 0.06, 0.064, 0.068, 0.072, 0.076, 0.08, 0.084, 0.088, 0.092, 0.096, 0.1, 0.104, 0.108, 0.112, 0.116, 0.12, 0.124, 0.128, 0.132, 0.136, 0.14, 0.144, 0.148, 0.152, 0.156, 0.16, 0.164, 0.168, 0.172, 0.176, 0.18, 0.184, 0.188, 0.192, 0.196, 0.2, 0.204, 0.208, 0.212, 0.216, 0.22, 0.224, 0.228, 0.232, 0.236, 0.24, 0.244, 0.248, 0.252, 0.256, 0.26, 0.264, 0.268, 0.272, 0.276, 0.28, 0.284, 0.288, 0.292, 0.292, 0.292, 0.292, 0.292, 0.292, 0.292, 0.292]",None,None,['right'],[0.42138341604731977],[1.1473134589614347],up,1.6292385410051793,None,151.24192054208834,151.249963917071,151.50484379206318,151.49779937497806,151.49791475001257,151.50484379206318,,152.50467220903374,,152.49803645908833,1,1,151.50484379206318,152.50467220903374,,,,,,,,,,,,,,christina,,B,2026-03-30_10h08.37.458,asymmetry_final_v2,2024.2.4,120,2026-03-30 10h09.01.107589 -0400,
15,15,0,4,2,baseline,150,3.1,0.22,1.0,-0.156,flat,curv_flat,0.0,0.0,0.22,pen,input_data/stims/Shape_3.10_1.00.png,input_data/stims/Shape_0.00_2.00.png,input_data/stims/Shape_4.00_2.00.png,-1,1,-1.0,-1.0,1,up,54.029762415913865,None,up,1.3552801240002736,None,None,None,['right'],[0.3195209159748629],[1.371780583052896],up,1.7377827069722116,None,0,0,0,0,0,15,15,30,152.50467220903374,,,,,,,,,,,,,,,,,152.4990845840657,0.0010335000697523355,153.59105541708414,153.59109929203987,153.62733162508812,154.63595154206268,154.6312825420173,154.6315529170679,0.0002811669837683439,156.02344900008757,156.02469145902433,156.08562224998605,156.08562224998605,156.08562224998605,156.08562224998605,156.08562224998605,156.08562224998605,156.08562224998605,157.82717925007455,"[-0.156, -0.156, -0.156, -0.156, -0.156, -0.156, -0.156, -0.156, -0.156, -0.156, -0.156, -0.156, -0.156, -0.156, -0.156, -0.156, -0.156, -0.156, -0.156, -0.156, -0.156, -0.156, -0.156, -0.156, -0.156, -0.156, -0.156, -0.156, -0.156, -0.156, -0.156, -0.156, -0.152, -0.148, -0.144, -0.14, -0.136, -0.132, -0.128, -0.124, -0.12, -0.116, -0.112, -0.108, -0.104, -0.1, -0.096, -0.092, -0.088, -0.084, -0.08, -0.076, -0.072, -0.068, -0.064, -0.06, -0.056, -0.052, -0.048, -0.044, -0.04, -0.036, -0.032, -0.028, -0.024, -0.02, -0.016, -0.012, -0.008, -0.004, 0.0, 0.004, 0.008, 0.012, 0.016, 0.02, 0.024, 0.028, 0.032, 0.036, 0.04, 0.044, 0.048, 0.052, 0.056, 0.06, 0.064, 0.068, 0.072, 0.076, 0.08, 0.084, 0.088, 0.092, 0.096, 0.1, 0.104, 0.108, 0.112, 0.116, 0.12, 0.124, 0.128, 0.132, 0.136, 0.14, 0.144, 0.148, 0.152, 0.156, 0.16, 0.164, 0.168, 0.172, 0.176, 0.18, 0.184, 0.188, 0.192, 0.196, 0.2, 0.204, 0.208, 0.212, 0.216, 0.22, 0.224, 0.228, 0.232, 0.236, 0.24, 0.244, 0.248, 0.252, 0.256, 0.26, 0.264, 0.268, 0.272, 0.276, 0.28, 0.284, 0.288, 0.292, 0.296, 0.3, 0.304, 0.304, 0.304, 0.304, 0.304, 0.304]",None,None,['right'],[0.3195209159748629],[1.371780583052896],up,1.7377827069722116,None,157.8275447920896,157.8340731250355,158.10435629205313,158.09756025008392,158.0976772090653,158.10435629205313,,159.10440625005867,,159.0980804170249,1,1,158.10435629205313,159.10440625005867,,,,,,,,,,,,,,christina,,B,2026-03-30_10h08.37.458,asymmetry_final_v2,2024.2.4,120,2026-03-30 10h09.01.107589 -0400,
16,16,0,4,2,baseline,124,0.5,-0.3,3.0,-0.028,curv,curv_flat,0.0,0.0,-0.3,rew,input_data/stims/Shape_0.50_3.00.png,input_data/stims/Shape_0.00_2.00.png,input_data/stims/Shape_4.00_2.00.png,1,1,-1.0,1.0,-1,up,54.029762415913865,None,up,1.3552801240002736,None,None,None,['left'],[0.3303399990545586],[0.3992305420106277],up,0.9460999160073698,None,0,0,0,0,0,16,16,4,159.10440625005867,,,,,,,,,,,,,,,,,159.09899395902175,0.000893334043212235,160.09092095901724,160.09096850000788,160.12523858400527,161.11892354208976,161.1135179999983,161.113862083992,0.0003648750716820359,162.45582862501033,162.45706620905548,162.51129629206844,162.51129629206844,162.51129629206844,162.51129629206844,162.51129629206844,162.51129629206844,162.51129629206844,163.46806108404417,"[-0.028, -0.028, -0.028, -0.028, -0.028, -0.028, -0.028, -0.028, -0.028, -0.028, -0.028, -0.028, -0.028, -0.028, -0.028, -0.028, -0.028, -0.028, -0.028, -0.028, -0.028, -0.028, -0.028, -0.028, -0.028, -0.028, -0.028, -0.028, -0.028, -0.028, -0.028, -0.028, -0.028, -0.028, -0.032, -0.036, -0.04, -0.044, -0.048, -0.052, -0.056, -0.06, -0.064, -0.068, -0.072, -0.076, -0.08, -0.084, -0.088, -0.092, -0.096, -0.1, -0.104, -0.108, -0.112, -0.116, -0.12, -0.124, -0.128, -0.132, -0.136, -0.14, -0.144, -0.148, -0.152, -0.156, -0.16, -0.164, -0.168, -0.168, -0.168, -0.168, -0.168, -0.168, -0.168, -0.168, -0.168, -0.168, -0.168, -0.168, -0.168, -0.168, -0.168, -0.168, -0.168, -0.168, -0.168, -0.168, -0.168, -0.168, -0.168]",None,None,['left'],[0.3303399990545586],[0.3992305420106277],up,0.9460999160073698,None,163.46837545908056,163.4766695840517,163.7308234589873,163.72039370902348,163.72052049997728,163.7308234589873,163.7308234589873,164.76331837498583,164.76331837498583,164.75470037502237,1,5,,,,,,,,,,,,,,,,christina,,B,2026-03-30_10h08.37.458,asymmetry_final_v2,2024.2.4,120,2026-03-30 10h09.01.107589 -0400,
17,17,0,4,2,baseline,134,1.5,-0.1,3.0,0.156,curv,curv_flat,0.0,0.0,-0.1,rew,input_data/stims/Shape_1.50_3.00.png,input_data/stims/Shape_0.00_2.00.png,input_data/stims/Shape_4.00_2.00.png,1,1,1.0,1.0,-1,up,54.029762415913865,None,up,1.3552801240002736,None,None,None,['left'],[0.43634133297018707],[0.6393644580384716],up,1.1548735409742221,None,0,0,0,0,0,17,17,14,164.76331837498583,,,,,,,,,,,,,,,,,164.7556661249837,0.0009477080311626196,165.84753733407706,165.84757545904722,165.87769070907962,166.9713597500231,166.96620179200545,166.9664863339858,0.00029170792549848557,168.4083987090271,168.40963937505148,168.4642127089901,168.4642127089901,168.4642127089901,168.4642127089901,168.4642127089901,168.4642127089901,168.4642127089901,169.6321776250843,"[0.156, 0.156, 0.156, 0.156, 0.156, 0.156, 0.156, 0.156, 0.156, 0.156, 0.156, 0.156, 0.156, 0.156, 0.156, 0.156, 0.156, 0.156, 0.156, 0.156, 0.156, 0.156, 0.156, 0.156, 0.156, 0.156, 0.156, 0.156, 0.156, 0.156, 0.156, 0.156, 0.156, 0.156, 0.156, 0.156, 0.156, 0.156, 0.156, 0.156, 0.156, 0.156, 0.156, 0.156, 0.152, 0.148, 0.144, 0.14, 0.136, 0.132, 0.128, 0.124, 0.12, 0.116, 0.112, 0.108, 0.104, 0.1, 0.096, 0.092, 0.088, 0.084, 0.08, 0.076, 0.072, 0.068, 0.064, 0.06, 0.056, 0.052, 0.048, 0.044, 0.04, 0.036, 0.032, 0.028, 0.024, 0.02, 0.016, 0.012, 0.008, 0.004, 0.0, -0.004, -0.008, -0.012, -0.016, -0.02, -0.024, -0.028, -0.032, -0.036, -0.04, -0.044, -0.048, -0.052, -0.056, -0.056, -0.056, -0.056, -0.056, -0.056, -0.056]",None,None,['left'],[0.43634133297018707],[0.6393644580384716],up,1.1548735409742221,None,169.6325614170637,169.6470212090062,169.89737575000618,169.8868386669783,169.88696066697594,169.89737575000618,169.89737575000618,170.8970134590054,170.8970134590054,170.8882933750283,1,5,,,,,,,,,,,,,,,,christina,,B,2026-03-30_10h08.37.458,asymmetry_final_v2,2024.2.4,120,2026-03-30 10h09.01.107589 -0400,
18,18,0,4,2,baseline,159,3.9,0.38,3.0,0.124,flat,flat_curv,0.0,0.0,-0.38,pen,input_data/stims/Shape_3.90_3.00.png,input_data/stims/Shape_4.00_2.00.png,input_data/stims/Shape_0.00_2.00.png,-1,-1,1.0,1.0,1,up,54.029762415913865,None,up,1.3552801240002736,None,None,None,['left'],[0.5127784160431474],[1.3033368329051882],up,1.865830832044594,None,0,0,0,0,0,18,18,39,170.8970134590054,,,,,,,,,,,,,,,,,170.88907695899252,0.0007741670124232769,171.98102341708727,171.98106691706926,172.010937583982,173.02285766706336,173.0171602499904,173.01742775004823,0.0002764998935163021,174.45932691707276,174.46054604207166,174.52081125008408,174.52081125008408,174.52081125008408,174.52081125008408,174.52081125008408,174.52081125008408,174.52081125008408,176.39129916706588,"[0.124, 0.124, 0.124, 0.124, 0.124, 0.124, 0.124, 0.124, 0.124, 0.124, 0.124, 0.124, 0.124, 0.124, 0.124, 0.124, 0.124, 0.124, 0.124, 0.124, 0.124, 0.124, 0.124, 0.124, 0.124, 0.124, 0.124, 0.124, 0.124, 0.124, 0.124, 0.124, 0.124, 0.124, 0.124, 0.124, 0.124, 0.124, 0.124, 0.124, 0.124, 0.124, 0.124, 0.124, 0.124, 0.124, 0.124, 0.124, 0.12, 0.116, 0.112, 0.108, 0.104, 0.1, 0.096, 0.092, 0.088, 0.084, 0.08, 0.076, 0.072, 0.068, 0.064, 0.06, 0.056, 0.052, 0.048, 0.044, 0.04, 0.036, 0.032, 0.028, 0.024, 0.02, 0.016, 0.012, 0.008, 0.004, 0.0, -0.004, -0.008, -0.012, -0.016, -0.02, -0.024, -0.028, -0.032, -0.036, -0.04, -0.044, -0.048, -0.052, -0.056, -0.06, -0.064, -0.068, -0.072, -0.076, -0.08, -0.084, -0.088, -0.092, -0.096, -0.1, -0.104, -0.108, -0.112, -0.116, -0.12, -0.124, -0.128, -0.132, -0.136, -0.14, -0.144, -0.148, -0.152, -0.156, -0.16, -0.164, -0.168, -0.172, -0.176, -0.18, -0.184, -0.188, -0.192, -0.196, -0.2, -0.204, -0.208, -0.212, -0.216, -0.22, -0.224, -0.228, -0.232, -0.236, -0.24, -0.244, -0.248, -0.252, -0.256, -0.26, -0.264, -0.268, -0.272, -0.276, -0.28, -0.284, -0.288, -0.288, -0.288, -0.288, -0.288, -0.288]",None,None,['left'],[0.5127784160431474],[1.3033368329051882],up,1.865830832044594,None,176.39166008401662,176.39993154199328,176.65550420898944,176.64819841703866,176.648327916977,176.65550420898944,,177.66411441704258,,177.65327566699125,1,1,176.65550420898944,177.66411441704258,,,,,,,,,,,,,,christina,,B,2026-03-30_10h08.37.458,asymmetry_final_v2,2024.2.4,120,2026-03-30 10h09.01.107589 -0400,
19,19,0,4,2,baseline,131,1.1,-0.18,1.0,-0.268,curv,flat_curv,0.0,0.0,0.18,rew,input_data/stims/Shape_1.10_1.00.png,input_data/stims/Shape_4.00_2.00.png,input_data/stims/Shape_0.00_2.00.png,1,-1,-1.0,-1.0,-1,up,54.029762415913865,None,up,1.3552801240002736,None,None,None,"['right', 'right']","[0.4944888319587335, 1.3554359989939258]","[0.7274166670395061, 0.24020416697021574]",up,1.6896262910449877,None,0,0,0,0,0,19,19,11,177.66411441704258,,,,,,,,,,,,,,,,,177.65416541707236,0.0008768748957663774,178.54610500007402,178.54614583402872,178.57713574997615,179.61367270897608,179.60650220897514,179.60669783398043,0.00019429100211709738,180.9986761250766,180.999922625022,181.05829249997623,181.05829249997623,181.05829249997623,181.05829249997623,181.05829249997623,181.05829249997623,181.05829249997623,182.7588088340126,"[-0.268, -0.268, -0.268, -0.268, -0.268, -0.268, -0.268, -0.268, -0.268, -0.268, -0.268, -0.268, -0.268, -0.268, -0.268, -0.268, -0.268, -0.268, -0.268, -0.268, -0.268, -0.268, -0.268, -0.268, -0.268, -0.268, -0.268, -0.268, -0.268, -0.268, -0.268, -0.268, -0.268, -0.268, -0.268, -0.268, -0.268, -0.268, -0.268, -0.268, -0.268, -0.268, -0.268, -0.268, -0.268, -0.268, -0.264, -0.26, -0.256, -0.252, -0.248, -0.244, -0.24, -0.236, -0.232, -0.228, -0.224, -0.22, -0.216, -0.212, -0.208, -0.204, -0.2, -0.196, -0.192, -0.188, -0.184, -0.18, -0.176, -0.172, -0.168, -0.164, -0.16, -0.156, -0.152, -0.148, -0.144, -0.14, -0.136, -0.132, -0.128, -0.124, -0.12, -0.116, -0.112, -0.108, -0.104, -0.1, -0.096, -0.092, -0.088, -0.084, -0.08, -0.076, -0.072, -0.068, -0.064, -0.06, -0.056, -0.052, -0.048, -0.044, -0.04, -0.036, -0.032, -0.032, -0.032, -0.032, -0.032, -0.032, -0.032, -0.032, -0.032, -0.032, -0.032, -0.032, -0.028, -0.024, -0.02, -0.016, -0.012, -0.008, -0.004, 0.0, 0.004, 0.008, 0.012, 0.016, 0.02, 0.024, 0.028, 0.032, 0.036, 0.04, 0.044, 0.044, 0.044, 0.044, 0.044, 0.044, 0.044, 0.044, 0.044, 0.044, 0.044]",None,None,"['right', 'right']","[0.4944888319587335, 1.3554359989939258]","[0.7274166670395061, 0.24020416697021574]",up,1.6896262910449877,None,182.75924162508454,182.76647179201245,183.02189591701608,183.0149603340542,183.01507804205175,183.02189591701608,183.02189591701608,184.03750075004064,184.03750075004064,184.03157037508208,1,5,,,,,,,,,,,,,,,,christina,,B,2026-03-30_10h08.37.458,asymmetry_final_v2,2024.2.4,120,2026-03-30 10h09.01.107589 -0400,
20,20,0,4,2,baseline,122,0.3,-0.34,1.0,-0.112,curv,curv_flat,0.0,0.0,-0.34,rew,input_data/stims/Shape_0.30_1.00.png,input_data/stims/Shape_0.00_2.00.png,input_data/stims/Shape_4.00_2.00.png,1,1,-1.0,-1.0,-1,up,54.029762415913865,None,up,1.3552801240002736,None,None,None,['left'],[0.6062416249187663],[0.8557754580397159],up,1.5757970829727128,None,0,0,0,0,0,20,20,2,184.03750075004064,,,,,,,,,,,,,,,,,184.03227550000884,0.0006946249632164836,184.92426237498876,184.9243095840793,184.95548695907928,185.95381300000008,185.94817116705235,185.94845250004437,0.0002965830499306321,187.39032466697972,187.39154387498274,187.45060337497853,187.45060337497853,187.45060337497853,187.45060337497853,187.45060337497853,187.45060337497853,187.45060337497853,189.04852862504777,"[-0.112, -0.112, -0.112, -0.112, -0.112, -0.112, -0.112, -0.112, -0.112, -0.112, -0.112, -0.112, -0.112, -0.112, -0.112, -0.112, -0.112, -0.112, -0.112, -0.112, -0.112, -0.112, -0.112, -0.112, -0.112, -0.112, -0.112, -0.112, -0.112, -0.112, -0.112, -0.112, -0.112, -0.112, -0.112, -0.112, -0.112, -0.112, -0.112, -0.112, -0.112, -0.112, -0.112, -0.112, -0.112, -0.112, -0.112, -0.112, -0.112, -0.112, -0.112, -0.112, -0.112, -0.112, -0.116, -0.12, -0.124, -0.128, -0.132, -0.136, -0.14, -0.144, -0.148, -0.152, -0.156, -0.16, -0.164, -0.168, -0.172, -0.176, -0.18, -0.184, -0.188, -0.192, -0.196, -0.2, -0.204, -0.208, -0.212, -0.216, -0.22, -0.224, -0.228, -0.232, -0.236, -0.24, -0.244, -0.248, -0.252, -0.256, -0.26, -0.264, -0.268, -0.272, -0.276, -0.28, -0.284, -0.288, -0.292, -0.296, -0.3, -0.304, -0.308, -0.312, -0.316, -0.32, -0.324, -0.328, -0.332, -0.336, -0.34, -0.344, -0.348, -0.352, -0.356, -0.36, -0.364, -0.368, -0.368, -0.368, -0.368, -0.368, -0.368, -0.368, -0.368, -0.368, -0.368, -0.368, -0.368, -0.368, -0.368, -0.368]",None,None,['left'],[0.6062416249187663],[0.8557754580397159],up,1.5757970829727128,None,189.0488302090671,189.06369266705588,189.31460183404852,189.30341304198373,189.3035198340658,189.31460183404852,189.31460183404852,190.31463304208592,190.31463304208592,190.30403800006025,1,5,,,,,,,,,,,,,,,,christina,,B,2026-03-30_10h08.37.458,asymmetry_final_v2,2024.2.4,120,2026-03-30 10h09.01.107589 -0400,
21,21,0,4,2,baseline,123,0.3,-0.34,1.0,-0.104,curv,flat_curv,0.0,0.0,0.34,rew,input_data/stims/Shape_0.30_1.00.png,input_data/stims/Shape_4.00_2.00.png,input_data/stims/Shape_0.00_2.00.png,1,-1,-1.0,-1.0,-1,up,54.029762415913865,None,up,1.3552801240002736,None,None,None,['right'],[0.48408791597466916],[1.171454458963126],up,1.7897756659658626,None,0,0,0,0,0,21,21,3,190.31463304208592,,,,,,,,,,,,,,,,,190.30492212506942,0.0008709999965503812,191.2468596670078,191.24690258398186,191.2780542090768,192.28637962508947,192.2812903750455,192.28156250005122,0.0002768330741673708,193.72346895898227,193.72467775002588,193.783457459067,193.783457459067,193.783457459067,193.783457459067,193.783457459067,193.783457459067,193.783457459067,195.58134362497367,"[-0.104, -0.104, -0.104, -0.104, -0.104, -0.104, -0.104, -0.104, -0.104, -0.104, -0.104, -0.104, -0.104, -0.104, -0.104, -0.104, -0.104, -0.104, -0.104, -0.104, -0.104, -0.104, -0.104, -0.104, -0.104, -0.104, -0.104, -0.104, -0.104, -0.104, -0.104, -0.104, -0.104, -0.104, -0.104, -0.104, -0.104, -0.104, -0.104, -0.104, -0.104, -0.1, -0.096, -0.092, -0.088, -0.084, -0.08, -0.076, -0.072, -0.068, -0.064, -0.06, -0.056, -0.052, -0.048, -0.044, -0.04, -0.036, -0.032, -0.028, -0.024, -0.02, -0.016, -0.012, -0.008, -0.004, 0.0, 0.004, 0.008, 0.012, 0.016, 0.02, 0.024, 0.028, 0.032, 0.036, 0.04, 0.044, 0.048, 0.052, 0.056, 0.06, 0.064, 0.068, 0.072, 0.076, 0.08, 0.084, 0.088, 0.092, 0.096, 0.1, 0.104, 0.108, 0.112, 0.116, 0.12, 0.124, 0.128, 0.132, 0.136, 0.14, 0.144, 0.148, 0.152, 0.156, 0.16, 0.164, 0.168, 0.172, 0.176, 0.18, 0.184, 0.188, 0.192, 0.196, 0.2, 0.204, 0.208, 0.212, 0.216, 0.22, 0.224, 0.228, 0.232, 0.236, 0.24, 0.244, 0.248, 0.248, 0.248, 0.248, 0.248, 0.248, 0.248, 0.248, 0.248, 0.248, 0.248, 0.248, 0.248, 0.248, 0.248, 0.248, 0.248]",None,None,['right'],[0.48408791597466916],[1.171454458963126],up,1.7897756659658626,None,195.58161425008439,195.58742270898074,195.83837408397812,195.8315639590146,195.8316851670388,195.83837408397812,195.83837408397812,196.83820791705512,196.83820791705512,196.83174791699275,1,5,,,,,,,,,,,,,,,,christina,,B,2026-03-30_10h08.37.458,asymmetry_final_v2,2024.2.4,120,2026-03-30 10h09.01.107589 -0400,
22,22,0,4,2,baseline,140,2.1,0.02,1.0,-0.116,flat,curv_flat,0.0,0.0,0.02,pen,input_data/stims/Shape_2.10_1.00.png,input_data/stims/Shape_0.00_2.00.png,input_data/stims/Shape_4.00_2.00.png,-1,1,-1.0,-1.0,1,up,54.029762415913865,None,up,1.3552801240002736,None,None,None,['right'],[0.5840543330414221],[0.5761315419804305],up,1.238955790991895,None,0,0,0,0,0,22,22,20,196.83820791705512,,,,,,,,,,,,,,,,,196.83259574999101,0.0008298750035464764,197.77450537506957,197.7745504170889,197.80559379199985,198.86419333401136,198.85709687508643,198.85736504208762,0.00027679093182086945,200.29925220902078,200.30048125004396,200.36112637503538,200.36112637503538,200.36112637503538,200.36112637503538,200.36112637503538,200.36112637503538,200.36112637503538,201.61052487499546,"[-0.116, -0.116, -0.116, -0.116, -0.116, -0.116, -0.116, -0.116, -0.116, -0.116, -0.116, -0.116, -0.116, -0.116, -0.116, -0.116, -0.116, -0.116, -0.116, -0.116, -0.116, -0.116, -0.116, -0.116, -0.116, -0.116, -0.116, -0.116, -0.116, -0.116, -0.116, -0.116, -0.116, -0.116, -0.116, -0.116, -0.116, -0.116, -0.116, -0.116, -0.116, -0.116, -0.116, -0.116, -0.116, -0.116, -0.116, -0.116, -0.116, -0.116, -0.116, -0.116, -0.112, -0.108, -0.104, -0.1, -0.096, -0.092, -0.088, -0.084, -0.08, -0.076, -0.072, -0.068, -0.064, -0.06, -0.056, -0.052, -0.048, -0.044, -0.04, -0.036, -0.032, -0.028, -0.024, -0.02, -0.016, -0.012, -0.008, -0.004, 0.0, 0.004, 0.008, 0.012, 0.016, 0.02, 0.024, 0.028, 0.032, 0.036, 0.04, 0.044, 0.048, 0.052, 0.056, 0.06, 0.064, 0.064, 0.064, 0.064, 0.064, 0.064, 0.064, 0.064, 0.064, 0.064]",None,None,['right'],[0.5840543330414221],[0.5761315419804305],up,1.238955790991895,None,201.6108410420129,201.6170774170896,201.872458417085,201.8652012500679,201.86532254202757,201.872458417085,,202.880866084015,,202.87140262499452,1,1,201.872458417085,202.880866084015,,,,,,,,,,,,,,christina,,B,2026-03-30_10h08.37.458,asymmetry_final_v2,2024.2.4,120,2026-03-30 10h09.01.107589 -0400,
23,23,0,4,2,baseline,156,3.7,0.34,1.0,-0.116,flat,curv_flat,0.0,0.0,0.34,pen,input_data/stims/Shape_3.70_1.00.png,input_data/stims/Shape_0.00_2.00.png,input_data/stims/Shape_4.00_2.00.png,-1,1,-1.0,-1.0,1,up,54.029762415913865,None,up,1.3552801240002736,None,None,None,['right'],[0.4065883749863133],[1.3353845829842612],up,1.8038616250269115,None,0,0,0,0,0,23,23,36,202.880866084015,,,,,,,,,,,,,,,,,202.87224216700997,0.0008327920222654939,203.86422995908652,203.8642761670053,203.89579500001855,204.89695779199246,204.88939174998086,204.8896524590673,0.00026691704988479614,206.28160358406603,206.2827953749802,206.3410509590758,206.3410509590758,206.3410509590758,206.3410509590758,206.3410509590758,206.3410509590758,206.3410509590758,208.1512358749751,"[-0.116, -0.116, -0.116, -0.116, -0.116, -0.116, -0.116, -0.116, -0.116, -0.116, -0.116, -0.116, -0.116, -0.116, -0.116, -0.116, -0.116, -0.116, -0.116, -0.116, -0.116, -0.116, -0.116, -0.116, -0.116, -0.116, -0.116, -0.116, -0.116, -0.116, -0.116, -0.116, -0.116, -0.116, -0.116, -0.116, -0.116, -0.112, -0.108, -0.104, -0.1, -0.096, -0.092, -0.088, -0.084, -0.08, -0.076, -0.072, -0.068, -0.064, -0.06, -0.056, -0.052, -0.048, -0.044, -0.04, -0.036, -0.032, -0.028, -0.024, -0.02, -0.016, -0.012, -0.008, -0.004, 0.0, 0.004, 0.008, 0.012, 0.016, 0.02, 0.024, 0.028, 0.032, 0.036, 0.04, 0.044, 0.048, 0.052, 0.056, 0.06, 0.064, 0.068, 0.072, 0.076, 0.08, 0.084, 0.088, 0.092, 0.096, 0.1, 0.104, 0.108, 0.112, 0.116, 0.12, 0.124, 0.128, 0.132, 0.136, 0.14, 0.144, 0.148, 0.152, 0.156, 0.16, 0.164, 0.168, 0.172, 0.176, 0.18, 0.184, 0.188, 0.192, 0.196, 0.2, 0.204, 0.208, 0.212, 0.216, 0.22, 0.224, 0.228, 0.232, 0.236, 0.24, 0.244, 0.248, 0.252, 0.256, 0.26, 0.264, 0.268, 0.272, 0.276, 0.28, 0.284, 0.288, 0.292, 0.292, 0.292, 0.292, 0.292, 0.292]",None,None,['right'],[0.4065883749863133],[1.3353845829842612],up,1.8038616250269115,None,208.15189758408815,208.1630232090829,208.4199389590649,208.41454354207963,208.41460029198788,208.4199389590649,,209.43137870903593,,209.42126183398068,1,1,208.4199389590649,209.43137870903593,,,,,,,,,,,,,,christina,,B,2026-03-30_10h08.37.458,asymmetry_final_v2,2024.2.4,120,2026-03-30 10h09.01.107589 -0400,
24,24,0,4,2,baseline,153,3.3,0.26,1.0,-0.048,flat,flat_curv,0.0,0.0,-0.26,pen,input_data/stims/Shape_3.30_1.00.png,input_data/stims/Shape_4.00_2.00.png,input_data/stims/Shape_0.00_2.00.png,-1,-1,-1.0,-1.0,1,up,54.029762415913865,None,up,1.3552801240002736,None,None,None,"['right', 'left']","[0.31954520707949996, 0.5849528739927337]","[0.16763583396095783, 0.8763072500005364]",up,1.5381596660008654,None,0,0,0,0,0,24,24,33,209.43137870903593,,,,,,,,,,,,,,,,,209.4221122090239,0.0008394579635933042,210.31405425001867,210.31409624998923,210.34532491699792,211.34723054198548,211.34158229199238,211.3419027919881,0.00034200004301965237,212.63382175005972,212.6350594169926,212.69348720903508,212.69348720903508,212.69348720903508,212.69348720903508,212.69348720903508,212.69348720903508,212.69348720903508,214.24153070908505,"[-0.048, -0.048, -0.048, -0.048, -0.048, -0.048, -0.048, -0.048, -0.048, -0.048, -0.048, -0.048, -0.048, -0.048, -0.048, -0.048, -0.048, -0.048, -0.048, -0.048, -0.048, -0.048, -0.048, -0.048, -0.048, -0.048, -0.048, -0.048, -0.048, -0.048, -0.048, -0.048, -0.048, -0.044, -0.04, -0.036, -0.032, -0.028, -0.024, -0.02, -0.016, -0.012, -0.008, -0.004, 0.0, 0.004, 0.004, 0.004, 0.004, 0.004, 0.004, 0.004, 0.004, 0.004, 0.004, 0.0, -0.004, -0.008, -0.012, -0.016, -0.02, -0.024, -0.028, -0.032, -0.036, -0.04, -0.044, -0.048, -0.052, -0.056, -0.06, -0.064, -0.068, -0.072, -0.076, -0.08, -0.084, -0.088, -0.092, -0.096, -0.1, -0.104, -0.108, -0.112, -0.116, -0.12, -0.124, -0.128, -0.132, -0.136, -0.14, -0.144, -0.148, -0.152, -0.156, -0.16, -0.164, -0.168, -0.172, -0.176, -0.18, -0.184, -0.188, -0.192, -0.196, -0.2, -0.204, -0.208, -0.212, -0.216, -0.22, -0.224, -0.228, -0.232, -0.236, -0.24, -0.244, -0.248, -0.252, -0.256, -0.26, -0.264, -0.268, -0.272, -0.276, -0.28, -0.284, -0.288, -0.292, -0.296, -0.3, -0.3, -0.3, -0.3, -0.3, -0.3, -0.3, -0.3, -0.3]",None,None,"['right', 'left']","[0.31954520707949996, 0.5849528739927337]","[0.16763583396095783, 0.8763072500005364]",up,1.5381596660008654,None,214.24188095901627,214.25049804197624,214.505839459016,214.4985772500513,214.4986688750796,214.505839459016,,215.50515545904636,,215.49851979198866,1,1,214.505839459016,215.50515545904636,,,,,,,,,,,,,,christina,,B,2026-03-30_10h08.37.458,asymmetry_final_v2,2024.2.4,120,2026-03-30 10h09.01.107589 -0400,
25,25,0,4,2,baseline,145,2.5,0.1,1.0,-0.256,flat,flat_curv,0.0,0.0,-0.1,pen,input_data/stims/Shape_2.50_1.00.png,input_data/stims/Shape_4.00_2.00.png,input_data/stims/Shape_0.00_2.00.png,-1,-1,-1.0,-1.0,1,up,54.029762415913865,None,up,1.3552801240002736,None,None,None,['right'],[0.6190808749524876],[0.2559235410299152],up,1.1659942079568282,None,0,0,0,0,0,25,25,25,215.50515545904636,,,,,,,,,,,,,,,,,215.4995435840683,0.0010097080375999212,216.5915221250616,216.59156720899045,216.62562762503512,217.64705350005534,217.64003354206216,217.64031170902308,0.0002922499552369118,218.9322734590387,218.93347129202448,218.99224045907613,218.99224045907613,218.99224045907613,218.99224045907613,218.99224045907613,218.99224045907613,218.99224045907613,220.1625398750184,"[-0.256, -0.256, -0.256, -0.256, -0.256, -0.256, -0.256, -0.256, -0.256, -0.256, -0.256, -0.256, -0.256, -0.256, -0.256, -0.256, -0.256, -0.256, -0.256, -0.256, -0.256, -0.256, -0.256, -0.256, -0.256, -0.256, -0.256, -0.256, -0.256, -0.256, -0.256, -0.256, -0.256, -0.256, -0.256, -0.256, -0.256, -0.256, -0.256, -0.256, -0.256, -0.256, -0.256, -0.256, -0.256, -0.256, -0.256, -0.256, -0.256, -0.256, -0.256, -0.256, -0.256, -0.256, -0.256, -0.256, -0.256, -0.256, -0.256, -0.256, -0.256, -0.256, -0.252, -0.248, -0.244, -0.24, -0.236, -0.232, -0.228, -0.224, -0.22, -0.216, -0.212, -0.208, -0.204, -0.2, -0.196, -0.192, -0.188, -0.184, -0.18, -0.176, -0.172, -0.172, -0.172, -0.172, -0.172, -0.172, -0.172, -0.172, -0.172, -0.172, -0.172, -0.172, -0.172, -0.172, -0.172, -0.172, -0.172, -0.172, -0.172, -0.172, -0.172, -0.172, -0.172, -0.172, -0.172, -0.172]",None,None,['right'],[0.6190808749524876],[0.2559235410299152],up,1.1659942079568282,None,220.16292683407664,220.16978262504563,220.42223645898048,220.41518225008622,220.41529666702263,220.42223645898048,,221.43118879199028,,221.4207859589951,1,1,220.42223645898048,221.43118879199028,,,,,,,,,,,,,,christina,,B,2026-03-30_10h08.37.458,asymmetry_final_v2,2024.2.4,120,2026-03-30 10h09.01.107589 -0400,
26,26,0,4,2,baseline,125,0.5,-0.3,3.0,0.376,curv,flat_curv,0.0,0.0,0.3,rew,input_data/stims/Shape_0.50_3.00.png,input_data/stims/Shape_4.00_2.00.png,input_data/stims/Shape_0.00_2.00.png,1,-1,1.0,1.0,-1,up,54.029762415913865,None,up,1.3552801240002736,None,None,None,"['right', 'left']","[0.507820290978998, 0.6598902080440894]","[0.09924270899500698, 1.0322102499194443]",up,1.757203415967524,None,0,0,0,0,0,26,26,5,221.43118879199028,,,,,,,,,,,,,,,,,221.42166133399587,0.0008600830333307385,222.36362883402035,222.36366829206236,222.39518604206387,223.56377391703427,223.55776495905593,223.55803012498654,0.00026887503918260336,225.0499355000211,225.05113870906644,225.11030370905064,225.11030370905064,225.11030370905064,225.11030370905064,225.11030370905064,225.11030370905064,225.11030370905064,226.87155799998436,"[0.376, 0.376, 0.376, 0.376, 0.376, 0.376, 0.376, 0.376, 0.376, 0.376, 0.376, 0.376, 0.376, 0.376, 0.376, 0.376, 0.376, 0.376, 0.376, 0.376, 0.376, 0.376, 0.376, 0.376, 0.376, 0.376, 0.376, 0.376, 0.376, 0.376, 0.376, 0.376, 0.376, 0.376, 0.376, 0.376, 0.376, 0.376, 0.376, 0.376, 0.376, 0.376, 0.376, 0.376, 0.376, 0.376, 0.376, 0.376, 0.38, 0.384, 0.388, 0.392, 0.396, 0.4, 0.4, 0.4, 0.4, 0.4, 0.396, 0.392, 0.388, 0.384, 0.38, 0.376, 0.372, 0.368, 0.364, 0.36, 0.356, 0.352, 0.348, 0.344, 0.34, 0.336, 0.332, 0.328, 0.324, 0.32, 0.316, 0.312, 0.308, 0.304, 0.3, 0.296, 0.292, 0.288, 0.284, 0.28, 0.276, 0.272, 0.268, 0.264, 0.26, 0.256, 0.252, 0.248, 0.244, 0.24, 0.236, 0.232, 0.228, 0.224, 0.22, 0.216, 0.212, 0.208, 0.204, 0.2, 0.196, 0.192, 0.188, 0.184, 0.18, 0.176, 0.172, 0.168, 0.164, 0.16, 0.156, 0.152, 0.148, 0.144, 0.14, 0.136, 0.132, 0.128, 0.124, 0.12, 0.116, 0.112, 0.108, 0.104, 0.1, 0.096, 0.092, 0.088, 0.084, 0.08, 0.076, 0.072, 0.068, 0.064, 0.06, 0.056, 0.052, 0.048, 0.044, 0.04, 0.04, 0.04, 0.04, 0.04, 0.04]",None,None,"['right', 'left']","[0.507820290978998, 0.6598902080440894]","[0.09924270899500698, 1.0322102499194443]",up,1.757203415967524,None,226.8720061670756,226.88035916700028,227.13139858399518,227.121011500014,227.12112487503327,227.13139858399518,227.13139858399518,228.1312743340386,228.1312743340386,228.12084133399185,1,5,,,,,,,,,,,,,,,,christina,,B,2026-03-30_10h08.37.458,asymmetry_final_v2,2024.2.4,120,2026-03-30 10h09.01.107589 -0400,
27,27,0,4,2,baseline,149,2.9,0.18,1.0,-0.3,flat,flat_curv,0.0,0.0,-0.18,pen,input_data/stims/Shape_2.90_1.00.png,input_data/stims/Shape_4.00_2.00.png,input_data/stims/Shape_0.00_2.00.png,-1,-1,-1.0,-1.0,1,up,54.029762415913865,None,up,1.3552801240002736,None,None,None,['left'],[1.417063832981512],[0.07130270800553262],up,1.6122142910026014,None,0,0,0,0,0,27,27,29,228.1312743340386,,,,,,,,,,,,,,,,,228.1216865000315,0.0008334579179063439,229.01364554208703,229.01369187503587,229.0448960000649,230.13683154201135,230.1316963339923,230.13194637501147,0.0002583750756457448,231.52389349997975,231.52502966707107,231.5816805419745,231.5816805419745,231.5816805419745,231.5816805419745,231.5816805419745,231.5816805419745,231.5816805419745,233.20080104202498,"[-0.3, -0.3, -0.3, -0.3, -0.3, -0.3, -0.3, -0.3, -0.3, -0.3, -0.3, -0.3, -0.3, -0.3, -0.3, -0.3, -0.3, -0.3, -0.3, -0.3, -0.3, -0.3, -0.3, -0.3, -0.3, -0.3, -0.3, -0.3, -0.3, -0.3, -0.3, -0.3, -0.3, -0.3, -0.3, -0.3, -0.3, -0.3, -0.3, -0.3, -0.3, -0.3, -0.3, -0.3, -0.3, -0.3, -0.3, -0.3, -0.3, -0.3, -0.3, -0.3, -0.3, -0.3, -0.3, -0.3, -0.3, -0.3, -0.3, -0.3, -0.3, -0.3, -0.3, -0.3, -0.3, -0.3, -0.3, -0.3, -0.3, -0.3, -0.3, -0.3, -0.3, -0.3, -0.3, -0.3, -0.3, -0.3, -0.3, -0.3, -0.3, -0.3, -0.3, -0.3, -0.3, -0.3, -0.3, -0.3, -0.3, -0.3, -0.3, -0.3, -0.3, -0.3, -0.3, -0.3, -0.3, -0.3, -0.3, -0.3, -0.3, -0.3, -0.3, -0.3, -0.3, -0.3, -0.3, -0.3, -0.3, -0.3, -0.3, -0.3, -0.3, -0.3, -0.3, -0.3, -0.3, -0.3, -0.3, -0.3, -0.3, -0.3, -0.3, -0.3, -0.3, -0.3, -0.3, -0.304, -0.308, -0.312, -0.316, -0.32, -0.324, -0.324, -0.324, -0.324, -0.324, -0.324, -0.324, -0.324, -0.324, -0.324, -0.324]",None,None,['left'],[1.417063832981512],[0.07130270800553262],up,1.6122142910026014,None,233.20126079197507,233.21454408403952,233.46393337508198,233.45421275007538,233.45432787504978,233.46393337508198,,234.47145929199178,,234.46528529201169,1,1,233.46393337508198,234.47145929199178,,,,,,,,,,,,,,christina,,B,2026-03-30_10h08.37.458,asymmetry_final_v2,2024.2.4,120,2026-03-30 10h09.01.107589 -0400,
28,28,0,4,2,baseline,146,2.7,0.14,1.0,0.016,flat,curv_flat,0.0,0.0,0.14,pen,input_data/stims/Shape_2.70_1.00.png,input_data/stims/Shape_0.00_2.00.png,input_data/stims/Shape_4.00_2.00.png,-1,1,1.0,-1.0,1,up,54.029762415913865,None,up,1.3552801240002736,None,None,None,"['right', 'right']","[0.7267431659856811, 1.4865564570063725]","[0.43522166600450873, 0.2479862089967355]",up,1.8639009160688147,None,0,0,0,0,0,28,28,26,234.47145929199178,,,,,,,,,,,,,,,,,234.4661585839931,0.0008505829609930515,235.50815100001637,235.50819354201667,235.53963837504853,236.6307324169902,236.62419683404732,236.62448500003666,0.0002928749890998006,238.01641995902173,238.01785787497647,238.0750639170874,238.0750639170874,238.0750639170874,238.0750639170874,238.0750639170874,238.0750639170874,238.0750639170874,239.9470682090614,"[0.016, 0.016, 0.016, 0.016, 0.016, 0.016, 0.016, 0.016, 0.016, 0.016, 0.016, 0.016, 0.016, 0.016, 0.016, 0.016, 0.016, 0.016, 0.016, 0.016, 0.016, 0.016, 0.016, 0.016, 0.016, 0.016, 0.016, 0.016, 0.016, 0.016, 0.016, 0.016, 0.016, 0.016, 0.016, 0.016, 0.016, 0.016, 0.016, 0.016, 0.016, 0.016, 0.016, 0.016, 0.016, 0.016, 0.016, 0.016, 0.016, 0.016, 0.016, 0.016, 0.016, 0.016, 0.016, 0.016, 0.016, 0.016, 0.016, 0.016, 0.016, 0.016, 0.016, 0.016, 0.016, 0.016, 0.016, 0.02, 0.024, 0.028, 0.032, 0.036, 0.04, 0.044, 0.048, 0.052, 0.056, 0.06, 0.064, 0.068, 0.072, 0.076, 0.08, 0.084, 0.088, 0.092, 0.096, 0.1, 0.104, 0.108, 0.112, 0.116, 0.12, 0.124, 0.128, 0.132, 0.136, 0.14, 0.144, 0.148, 0.152, 0.156, 0.16, 0.16, 0.16, 0.16, 0.16, 0.16, 0.16, 0.16, 0.16, 0.16, 0.16, 0.16, 0.16, 0.16, 0.16, 0.16, 0.16, 0.16, 0.16, 0.16, 0.16, 0.16, 0.16, 0.16, 0.16, 0.16, 0.16, 0.16, 0.164, 0.168, 0.172, 0.176, 0.18, 0.184, 0.188, 0.192, 0.196, 0.2, 0.204, 0.208, 0.212, 0.216, 0.22, 0.224, 0.228, 0.232, 0.236, 0.24, 0.244, 0.248, 0.248, 0.248, 0.248, 0.248, 0.248, 0.248, 0.248, 0.248, 0.248, 0.248, 0.248, 0.248, 0.248, 0.248]",None,None,"['right', 'right']","[0.7267431659856811, 1.4865564570063725]","[0.43522166600450873, 0.2479862089967355]",up,1.8639009160688147,None,239.94751887500752,239.95449762500357,240.20633295900188,240.19901829201262,240.19913687498774,240.20633295900188,,241.205697708996,,241.19895683403593,1,1,240.20633295900188,241.205697708996,,,,,,,,,,,,,,christina,,B,2026-03-30_10h08.37.458,asymmetry_final_v2,2024.2.4,120,2026-03-30 10h09.01.107589 -0400,
29,29,0,4,2,baseline,142,2.3,0.06,3.0,0.236,flat,curv_flat,0.0,0.0,0.06,pen,input_data/stims/Shape_2.30_3.00.png,input_data/stims/Shape_0.00_2.00.png,input_data/stims/Shape_4.00_2.00.png,-1,1,1.0,1.0,1,up,54.029762415913865,None,up,1.3552801240002736,None,None,None,['left'],[0.6184388329274952],[0.7677540000295267],up,1.504877374973148,None,0,0,0,0,0,29,29,22,241.205697708996,,,,,,,,,,,,,,,,,241.20001550007146,0.0010389169910922647,242.24197741702665,242.24201804201584,242.2730427919887,243.32125241705216,243.31615920900367,243.3164654590655,0.00031779101118445396,244.70838299999014,244.70962045900524,244.76875079202,244.76875079202,244.76875079202,244.76875079202,244.76875079202,244.76875079202,244.76875079202,246.28308425005525,"[0.236, 0.236, 0.236, 0.236, 0.236, 0.236, 0.236, 0.236, 0.236, 0.236, 0.236, 0.236, 0.236, 0.236, 0.236, 0.236, 0.236, 0.236, 0.236, 0.236, 0.236, 0.236, 0.236, 0.236, 0.236, 0.236, 0.236, 0.236, 0.236, 0.236, 0.236, 0.236, 0.236, 0.236, 0.236, 0.236, 0.236, 0.236, 0.236, 0.236, 0.236, 0.236, 0.236, 0.236, 0.236, 0.236, 0.236, 0.236, 0.236, 0.236, 0.236, 0.236, 0.236, 0.236, 0.236, 0.236, 0.232, 0.228, 0.224, 0.22, 0.216, 0.212, 0.208, 0.204, 0.2, 0.196, 0.192, 0.188, 0.184, 0.18, 0.176, 0.172, 0.168, 0.164, 0.16, 0.156, 0.152, 0.148, 0.144, 0.14, 0.136, 0.132, 0.128, 0.124, 0.12, 0.116, 0.112, 0.108, 0.104, 0.1, 0.096, 0.092, 0.088, 0.084, 0.08, 0.076, 0.072, 0.068, 0.064, 0.06, 0.056, 0.052, 0.048, 0.044, 0.04, 0.036, 0.032, 0.028, 0.024, 0.02, 0.016, 0.012, 0.008, 0.004, 0.0, -0.004, -0.008, -0.012, -0.016, -0.02, -0.024, -0.024, -0.024, -0.024, -0.024, -0.024, -0.024, -0.024, -0.024, -0.024, -0.024, -0.024, -0.024]",None,None,['left'],[0.6184388329274952],[0.7677540000295267],up,1.504877374973148,None,246.28352929197717,246.29777216701768,246.54722100007348,246.5375610840274,246.53765312500764,246.54722100007348,,247.54748787498102,,247.53900108404923,0,-5,,,,,246.54722100007348,247.54748787498102,,,,,,,,,,christina,,B,2026-03-30_10h08.37.458,asymmetry_final_v2,2024.2.4,120,2026-03-30 10h09.01.107589 -0400,
30,30,0,4,2,baseline,130,1.1,-0.18,1.0,0.032,curv,curv_flat,0.0,0.0,-0.18,rew,input_data/stims/Shape_1.10_1.00.png,input_data/stims/Shape_0.00_2.00.png,input_data/stims/Shape_4.00_2.00.png,1,1,1.0,-1.0,-1,up,54.029762415913865,None,up,1.3552801240002736,None,None,None,"['left', 'left', 'right']","[0.5403309999965131, 0.9421715410426259, 1.668640791089274]","[0.22755029099062085, 0.17197749996557832, 0.1520924170035869]",up,1.9614956250879914,None,0,0,0,0,0,30,30,10,247.54748787498102,,,,,,,,,,,,,,,,,247.53993745904882,0.0009018749697133899,248.43179649999365,248.4318362090271,248.4629036670085,249.5369511670433,249.53162808401976,249.53195554204285,0.0003482919419184327,250.87390745908488,250.87511712498963,250.9341000840068,250.9341000840068,250.9341000840068,250.9341000840068,250.9341000840068,250.9341000840068,250.9341000840068,252.90117595903575,"[0.032, 0.032, 0.032, 0.032, 0.032, 0.032, 0.032, 0.032, 0.032, 0.032, 0.032, 0.032, 0.032, 0.032, 0.032, 0.032, 0.032, 0.032, 0.032, 0.032, 0.032, 0.032, 0.032, 0.032, 0.032, 0.032, 0.032, 0.032, 0.032, 0.032, 0.032, 0.032, 0.032, 0.032, 0.032, 0.032, 0.032, 0.032, 0.032, 0.032, 0.032, 0.032, 0.032, 0.032, 0.032, 0.032, 0.032, 0.032, 0.032, 0.032, 0.032, 0.032, 0.032, 0.032, 0.028, 0.024, 0.02, 0.016, 0.012, 0.008, 0.004, 0.0, -0.004, -0.008, -0.012, -0.016, -0.02, -0.024, -0.028, -0.028, -0.028, -0.028, -0.028, -0.028, -0.028, -0.028, -0.028, -0.028, -0.028, -0.028, -0.028, -0.028, -0.028, -0.028, -0.028, -0.032, -0.036, -0.04, -0.044, -0.048, -0.052, -0.056, -0.06, -0.064, -0.068, -0.072, -0.076, -0.08, -0.084, -0.088, -0.092, -0.092, -0.092, -0.092, -0.092, -0.092, -0.092, -0.092, -0.092, -0.092, -0.092, -0.092, -0.092, -0.092, -0.092, -0.092, -0.092, -0.092, -0.092, -0.092, -0.092, -0.092, -0.092, -0.092, -0.092, -0.092, -0.092, -0.092, -0.092, -0.092, -0.092, -0.092, -0.092, -0.092, -0.092, -0.092, -0.092, -0.092, -0.092, -0.092, -0.092, -0.092, -0.092, -0.092, -0.092, -0.092, -0.092, -0.092, -0.092, -0.092, -0.088, -0.084, -0.08, -0.076, -0.072, -0.068, -0.064, -0.06, -0.056, -0.052, -0.048, -0.048, -0.048, -0.048, -0.048, -0.048, -0.048, -0.048, -0.048, -0.048, -0.048, -0.048, -0.048, -0.048]",None,None,"['left', 'left', 'right']","[0.5403309999965131, 0.9421715410426259, 1.668640791089274]","[0.22755029099062085, 0.17197749996557832, 0.1520924170035869]",up,1.9614956250879914,None,252.90193275001366,252.91435675008688,253.16504200000782,253.1543701250339,253.15448458399624,253.16504200000782,253.16504200000782,254.17006420902908,254.17006420902908,254.16462220903486,1,5,,,,,,,,,,,,,,,,christina,,B,2026-03-30_10h08.37.458,asymmetry_final_v2,2024.2.4,120,2026-03-30 10h09.01.107589 -0400,
31,31,0,4,2,baseline,158,3.9,0.38,1.0,0.052,flat,curv_flat,0.0,0.0,0.38,pen,input_data/stims/Shape_3.90_1.00.png,input_data/stims/Shape_0.00_2.00.png,input_data/stims/Shape_4.00_2.00.png,-1,1,1.0,-1.0,1,up,54.029762415913865,None,up,1.3552801240002736,None,None,None,"['right', 'right', 'right']","[0.46032662398647517, 0.7765119989635423, 1.044045123970136]","[0.2713542500277981, 0.13218883296940476, 0.2001910830149427]",up,1.4227505410090089,None,0,0,0,0,0,31,31,38,254.17006420902908,,,,,,,,,,,,,,,,,254.1654854590306,0.0008357079932466149,255.15748587506823,255.1575296249939,255.1883104169974,256.26421200006735,256.25703891704325,256.25729629199486,0.0002638750011101365,257.6492130419938,257.65044850006234,257.7088570840424,257.7088570840424,257.7088570840424,257.7088570840424,257.7088570840424,257.7088570840424,257.7088570840424,259.1400283750845,"[0.052, 0.052, 0.052, 0.052, 0.052, 0.052, 0.052, 0.052, 0.052, 0.052, 0.052, 0.052, 0.052, 0.052, 0.052, 0.052, 0.052, 0.052, 0.052, 0.052, 0.052, 0.052, 0.052, 0.052, 0.052, 0.052, 0.052, 0.052, 0.052, 0.052, 0.052, 0.052, 0.052, 0.052, 0.052, 0.052, 0.052, 0.052, 0.052, 0.052, 0.052, 0.052, 0.052, 0.056, 0.06, 0.064, 0.068, 0.072, 0.076, 0.08, 0.084, 0.088, 0.092, 0.096, 0.1, 0.104, 0.108, 0.112, 0.116, 0.12, 0.124, 0.128, 0.128, 0.128, 0.128, 0.128, 0.128, 0.132, 0.136, 0.14, 0.144, 0.148, 0.152, 0.156, 0.16, 0.164, 0.168, 0.172, 0.172, 0.172, 0.172, 0.172, 0.172, 0.172, 0.172, 0.172, 0.172, 0.172, 0.172, 0.172, 0.176, 0.18, 0.184, 0.188, 0.192, 0.196, 0.2, 0.204, 0.208, 0.212, 0.216, 0.22, 0.224, 0.228, 0.232, 0.236, 0.24, 0.24, 0.24, 0.24, 0.24, 0.24, 0.24, 0.24, 0.24, 0.24, 0.24, 0.24, 0.24, 0.24]",None,None,"['right', 'right', 'right']","[0.46032662398647517, 0.7765119989635423, 1.044045123970136]","[0.2713542500277981, 0.13218883296940476, 0.2001910830149427]",up,1.4227505410090089,None,259.1404435420409,259.14771970908623,259.3986667090794,259.3863660420757,259.3864631250035,259.3986667090794,,260.41513541701715,,260.4040066670859,1,1,259.3986667090794,260.41513541701715,,,,,,,,,,,,,,christina,,B,2026-03-30_10h08.37.458,asymmetry_final_v2,2024.2.4,120,2026-03-30 10h09.01.107589 -0400,
32,32,0,4,2,baseline,129,0.9,-0.22,3.0,-0.104,curv,flat_curv,0.0,0.0,0.22,rew,input_data/stims/Shape_0.90_3.00.png,input_data/stims/Shape_4.00_2.00.png,input_data/stims/Shape_0.00_2.00.png,1,-1,-1.0,1.0,-1,up,54.029762415913865,None,up,1.3552801240002736,None,None,None,"['right', 'right']","[0.9926479579880834, 1.349564415984787]","[0.3238485410111025, 0.0763832920929417]",up,1.9719112489838153,None,0,0,0,0,0,32,32,9,260.41513541701715,,,,,,,,,,,,,,,,,260.40483866701834,0.0008172920206561685,261.496795583982,261.49683412502054,261.5264329590136,262.60495804203674,262.5997240419965,262.6000250839861,0.00031529099214822054,263.94195333402604,263.9431494170567,264.00124362506904,264.00124362506904,264.00124362506904,264.00124362506904,264.00124362506904,264.00124362506904,264.00124362506904,265.98427737504244,"[-0.104, -0.104, -0.104, -0.104, -0.104, -0.104, -0.104, -0.104, -0.104, -0.104, -0.104, -0.104, -0.104, -0.104, -0.104, -0.104, -0.104, -0.104, -0.104, -0.104, -0.104, -0.104, -0.104, -0.104, -0.104, -0.104, -0.104, -0.104, -0.104, -0.104, -0.104, -0.104, -0.104, -0.104, -0.104, -0.104, -0.104, -0.104, -0.104, -0.104, -0.104, -0.104, -0.104, -0.104, -0.104, -0.104, -0.104, -0.104, -0.104, -0.104, -0.104, -0.104, -0.104, -0.104, -0.104, -0.104, -0.104, -0.104, -0.104, -0.104, -0.104, -0.104, -0.104, -0.104, -0.104, -0.104, -0.104, -0.104, -0.104, -0.104, -0.104, -0.104, -0.104, -0.104, -0.104, -0.104, -0.104, -0.104, -0.104, -0.104, -0.104, -0.104, -0.104, -0.104, -0.104, -0.104, -0.104, -0.104, -0.1, -0.096, -0.092, -0.088, -0.084, -0.08, -0.076, -0.072, -0.068, -0.064, -0.06, -0.056, -0.052, -0.048, -0.044, -0.04, -0.036, -0.032, -0.028, -0.024, -0.02, -0.016, -0.012, -0.008, -0.004, -0.004, -0.004, -0.004, 0.0, 0.004, 0.008, 0.012, 0.016, 0.016, 0.016, 0.016, 0.016, 0.016, 0.016, 0.016, 0.016, 0.016, 0.016, 0.016, 0.016, 0.016, 0.016, 0.016, 0.016, 0.016, 0.016, 0.016, 0.016, 0.016, 0.016, 0.016, 0.016, 0.016, 0.016, 0.016, 0.016, 0.016, 0.016, 0.016, 0.016, 0.016, 0.016, 0.016, 0.016, 0.016, 0.016, 0.016, 0.016, 0.016, 0.016, 0.016, 0.016, 0.016, 0.016, 0.016, 0.016, 0.016, 0.016, 0.016, 0.016, 0.016, 0.016]",None,None,"['right', 'right']","[0.9926479579880834, 1.349564415984787]","[0.3238485410111025, 0.0763832920929417]",up,1.9719112489838153,None,265.9847590000136,265.9918196250219,266.23925304203294,266.2325640420895,266.2326631670585,266.23925304203294,266.23925304203294,267.238622709061,267.238622709061,267.2322534590494,1,5,,,,,,,,,,,,,,,,christina,,B,2026-03-30_10h08.37.458,asymmetry_final_v2,2024.2.4,120,2026-03-30 10h09.01.107589 -0400,
33,33,0,4,2,baseline,151,3.1,0.22,1.0,0.012,flat,flat_curv,0.0,0.0,-0.22,pen,input_data/stims/Shape_3.10_1.00.png,input_data/stims/Shape_4.00_2.00.png,input_data/stims/Shape_0.00_2.00.png,-1,-1,1.0,-1.0,1,up,54.029762415913865,None,up,1.3552801240002736,None,None,None,['left'],[0.46513774897903204],[0.9520369169767946],up,1.5923469989793375,None,0,0,0,0,0,33,33,31,267.238622709061,,,,,,,,,,,,,,,,,267.23324691702146,0.0009902919409796596,268.32528095901944,268.32532158400863,268.3545630000299,269.4311312920181,269.4240805420559,269.42436679208186,0.00029629096388816833,270.86628479207866,270.8675267919898,270.92618516704533,270.92618516704533,270.92618516704533,270.92618516704533,270.92618516704533,270.92618516704533,270.92618516704533,272.5340543750208,"[0.012, 0.012, 0.012, 0.012, 0.012, 0.012, 0.012, 0.012, 0.012, 0.012, 0.012, 0.012, 0.012, 0.012, 0.012, 0.012, 0.012, 0.012, 0.012, 0.012, 0.012, 0.012, 0.012, 0.012, 0.012, 0.012, 0.012, 0.012, 0.012, 0.012, 0.012, 0.012, 0.012, 0.012, 0.012, 0.012, 0.012, 0.012, 0.012, 0.012, 0.012, 0.012, 0.012, 0.008, 0.004, 0.0, -0.004, -0.008, -0.012, -0.016, -0.02, -0.024, -0.028, -0.032, -0.036, -0.04, -0.044, -0.048, -0.052, -0.056, -0.06, -0.064, -0.068, -0.072, -0.076, -0.08, -0.084, -0.088, -0.092, -0.096, -0.1, -0.104, -0.108, -0.112, -0.116, -0.12, -0.124, -0.128, -0.132, -0.136, -0.14, -0.144, -0.148, -0.152, -0.156, -0.16, -0.164, -0.168, -0.172, -0.176, -0.18, -0.184, -0.188, -0.192, -0.196, -0.2, -0.204, -0.208, -0.212, -0.216, -0.22, -0.224, -0.228, -0.232, -0.236, -0.24, -0.244, -0.248, -0.252, -0.256, -0.26, -0.264, -0.268, -0.272, -0.276, -0.28, -0.284, -0.288, -0.292, -0.296, -0.3, -0.3, -0.3, -0.3, -0.3, -0.3, -0.3, -0.3, -0.3, -0.3, -0.3, -0.3, -0.3, -0.3, -0.3, -0.3, -0.3]",None,None,['left'],[0.46513774897903204],[0.9520369169767946],up,1.5923469989793375,None,272.53458437498193,272.54794666706584,272.797710709041,272.7887291670777,272.7888432920445,272.797710709041,,273.7977728340775,,273.78866362501867,1,1,272.797710709041,273.7977728340775,,,,,,,,,,,,,,christina,,B,2026-03-30_10h08.37.458,asymmetry_final_v2,2024.2.4,120,2026-03-30 10h09.01.107589 -0400,
34,34,0,4,2,baseline,127,0.7,-0.26,3.0,0.196,curv,flat_curv,0.0,0.0,0.26,rew,input_data/stims/Shape_0.70_3.00.png,input_data/stims/Shape_4.00_2.00.png,input_data/stims/Shape_0.00_2.00.png,1,-1,1.0,1.0,-1,up,54.029762415913865,None,up,1.3552801240002736,None,None,None,"['left', 'right', 'left']","[0.76100591593422, 1.5151551238959655, 1.8975902909878641]","[0.08755408297292888, 0.16001312504522502, 0.2922148749930784]",up,2.3379729989683256,None,0,0,0,0,0,34,34,7,273.7977728340775,,,,,,,,,,,,,,,,,273.7895678339992,0.0008674589917063713,274.68153133406304,274.6815687090857,274.71264279203024,275.8477763750125,275.84106179198716,275.8413577500032,0.0003082090988755226,277.28329637506977,277.28453141706996,277.34263691701926,277.34263691701926,277.34263691701926,277.34263691701926,277.34263691701926,277.34263691701926,277.34263691701926,279.6851347920019,"[0.196, 0.196, 0.196, 0.196, 0.196, 0.196, 0.196, 0.196, 0.196, 0.196, 0.196, 0.196, 0.196, 0.196, 0.196, 0.196, 0.196, 0.196, 0.196, 0.196, 0.196, 0.196, 0.196, 0.196, 0.196, 0.196, 0.196, 0.196, 0.196, 0.196, 0.196, 0.196, 0.196, 0.196, 0.196, 0.196, 0.196, 0.196, 0.196, 0.196, 0.196, 0.196, 0.196, 0.196, 0.196, 0.196, 0.196, 0.196, 0.196, 0.196, 0.196, 0.196, 0.196, 0.196, 0.196, 0.196, 0.196, 0.196, 0.196, 0.196, 0.196, 0.196, 0.196, 0.196, 0.196, 0.196, 0.196, 0.192, 0.188, 0.184, 0.18, 0.176, 0.172, 0.168, 0.168, 0.168, 0.168, 0.168, 0.168, 0.168, 0.168, 0.168, 0.168, 0.168, 0.168, 0.168, 0.168, 0.168, 0.168, 0.168, 0.168, 0.168, 0.168, 0.168, 0.168, 0.168, 0.168, 0.168, 0.168, 0.168, 0.168, 0.168, 0.168, 0.168, 0.168, 0.168, 0.168, 0.168, 0.168, 0.168, 0.168, 0.168, 0.168, 0.168, 0.168, 0.168, 0.168, 0.168, 0.168, 0.168, 0.168, 0.168, 0.168, 0.168, 0.168, 0.168, 0.168, 0.168, 0.168, 0.168, 0.168, 0.168, 0.168, 0.168, 0.168, 0.168, 0.172, 0.176, 0.18, 0.184, 0.188, 0.192, 0.196, 0.2, 0.204, 0.208, 0.212, 0.216, 0.216, 0.216, 0.216, 0.216, 0.216, 0.216, 0.216, 0.216, 0.216, 0.216, 0.216, 0.216, 0.216, 0.216, 0.216, 0.216, 0.216, 0.216, 0.212, 0.208, 0.204, 0.2, 0.196, 0.192, 0.188, 0.184, 0.18, 0.176, 0.172, 0.168, 0.164, 0.16, 0.156, 0.152, 0.148, 0.144, 0.14, 0.136, 0.132, 0.128, 0.128, 0.128, 0.128, 0.128, 0.128, 0.128, 0.128, 0.128, 0.128, 0.128, 0.128, 0.128, 0.128, 0.128]",None,None,"['left', 'right', 'left']","[0.76100591593422, 1.5151551238959655, 1.8975902909878641]","[0.08755408297292888, 0.16001312504522502, 0.2922148749930784]",up,2.3379729989683256,None,279.6858690000372,279.69854241702706,279.94883429200854,279.9367855840828,279.93690558406524,279.94883429200854,279.94883429200854,280.9487369999988,280.9487369999988,280.9378378340043,1,5,,,,,,,,,,,,,,,,christina,,B,2026-03-30_10h08.37.458,asymmetry_final_v2,2024.2.4,120,2026-03-30 10h09.01.107589 -0400,
35,35,0,4,2,baseline,143,2.3,0.06,1.0,0.116,flat,flat_curv,0.0,0.0,-0.06,pen,input_data/stims/Shape_2.30_1.00.png,input_data/stims/Shape_4.00_2.00.png,input_data/stims/Shape_0.00_2.00.png,-1,-1,1.0,-1.0,1,up,54.029762415913865,None,up,1.3552801240002736,None,None,None,['left'],[0.41171037405729294],[0.8792452500201762],up,1.5385827909922227,None,0,0,0,0,0,35,35,23,280.9487369999988,,,,,,,,,,,,,,,,,280.93869045900647,0.0008392080198973417,281.9306285000639,281.93067283404525,281.96377366699744,282.9709522090852,282.96566104202066,282.9659415000351,0.00028849998489022255,284.45784950000234,284.4590791250812,284.5135603339877,284.5135603339877,284.5135603339877,284.5135603339877,284.5135603339877,284.5135603339877,284.5135603339877,286.0671092499979,"[0.116, 0.116, 0.116, 0.116, 0.116, 0.116, 0.116, 0.116, 0.116, 0.116, 0.116, 0.116, 0.116, 0.116, 0.116, 0.116, 0.116, 0.116, 0.116, 0.116, 0.116, 0.116, 0.116, 0.116, 0.116, 0.116, 0.116, 0.116, 0.116, 0.116, 0.116, 0.116, 0.116, 0.116, 0.116, 0.116, 0.116, 0.116, 0.116, 0.116, 0.116, 0.116, 0.112, 0.108, 0.104, 0.1, 0.096, 0.092, 0.088, 0.084, 0.08, 0.076, 0.072, 0.068, 0.064, 0.06, 0.056, 0.052, 0.048, 0.044, 0.04, 0.036, 0.032, 0.028, 0.024, 0.02, 0.016, 0.012, 0.008, 0.004, 0.0, -0.004, -0.008, -0.012, -0.016, -0.02, -0.024, -0.028, -0.032, -0.036, -0.04, -0.044, -0.048, -0.052, -0.056, -0.06, -0.064, -0.068, -0.072, -0.076, -0.08, -0.084, -0.088, -0.092, -0.096, -0.1, -0.104, -0.108, -0.112, -0.116, -0.12, -0.124, -0.128, -0.132, -0.136, -0.14, -0.144, -0.148, -0.152, -0.156, -0.16, -0.164, -0.168, -0.172, -0.176, -0.18, -0.184, -0.184, -0.184, -0.184, -0.184, -0.184, -0.184, -0.184, -0.184, -0.184, -0.184, -0.184, -0.184, -0.184, -0.184, -0.184, -0.184, -0.184, -0.184, -0.184, -0.184]",None,None,['left'],[0.41171037405729294],[0.8792452500201762],up,1.5385827909922227,None,286.06747437501326,286.07470162503887,286.32220499997493,286.31585195905063,286.31593833398074,286.32220499997493,,287.3225632500835,,287.31637737504207,1,1,286.32220499997493,287.3225632500835,,,,,,,,,,,,,,christina,,B,2026-03-30_10h08.37.458,asymmetry_final_v2,2024.2.4,120,2026-03-30 10h09.01.107589 -0400,
36,36,0,4,2,baseline,144,2.5,0.1,3.0,0.336,flat,curv_flat,0.0,0.0,0.1,pen,input_data/stims/Shape_2.50_3.00.png,input_data/stims/Shape_0.00_2.00.png,input_data/stims/Shape_4.00_2.00.png,-1,1,1.0,1.0,1,up,54.029762415913865,None,up,1.3552801240002736,None,None,None,"['left', 'left']","[0.6233645409811288, 1.3434745409758762]","[0.5351039170054719, 0.27224366704467684]",up,1.7518446249887347,None,0,0,0,0,0,36,36,24,287.3225632500835,,,,,,,,,,,,,,,,,287.317274167086,0.0008767079561948776,288.3591720419936,288.35922508407384,288.3918431670172,289.41587525000796,289.40539762505796,289.40565974998754,0.00027191604021936655,290.8476363749942,290.84907016705256,290.9040147920605,290.9040147920605,290.9040147920605,290.9040147920605,290.9040147920605,290.9040147920605,290.9040147920605,292.6603322090814,"[0.336, 0.336, 0.336, 0.336, 0.336, 0.336, 0.336, 0.336, 0.336, 0.336, 0.336, 0.336, 0.336, 0.336, 0.336, 0.336, 0.336, 0.336, 0.336, 0.336, 0.336, 0.336, 0.336, 0.336, 0.336, 0.336, 0.336, 0.336, 0.336, 0.336, 0.336, 0.336, 0.336, 0.336, 0.336, 0.336, 0.336, 0.336, 0.336, 0.336, 0.336, 0.336, 0.336, 0.336, 0.336, 0.336, 0.336, 0.336, 0.336, 0.336, 0.336, 0.336, 0.336, 0.336, 0.336, 0.332, 0.328, 0.324, 0.32, 0.316, 0.312, 0.308, 0.304, 0.3, 0.296, 0.292, 0.288, 0.284, 0.28, 0.276, 0.272, 0.268, 0.264, 0.26, 0.256, 0.252, 0.248, 0.244, 0.24, 0.236, 0.232, 0.228, 0.224, 0.22, 0.216, 0.212, 0.208, 0.204, 0.2, 0.196, 0.192, 0.188, 0.184, 0.18, 0.176, 0.172, 0.168, 0.164, 0.16, 0.16, 0.16, 0.16, 0.16, 0.16, 0.16, 0.16, 0.16, 0.16, 0.16, 0.16, 0.16, 0.16, 0.16, 0.16, 0.16, 0.156, 0.152, 0.148, 0.144, 0.14, 0.136, 0.132, 0.128, 0.124, 0.12, 0.116, 0.112, 0.108, 0.104, 0.1, 0.096, 0.092, 0.088, 0.084, 0.08, 0.076, 0.072, 0.068, 0.068, 0.068, 0.068, 0.068, 0.068, 0.068, 0.068, 0.068, 0.068, 0.068, 0.068, 0.068, 0.068]",None,None,"['left', 'left']","[0.6233645409811288, 1.3434745409758762]","[0.5351039170054719, 0.27224366704467684]",up,1.7518446249887347,None,292.66076750005595,292.6682501670439,292.9327467089752,292.9163595420541,292.9164240420796,292.9327467089752,,293.94801858405117,,293.9392811250873,1,1,292.9327467089752,293.94801858405117,,,,,,,,,,,,,,christina,,B,2026-03-30_10h08.37.458,asymmetry_final_v2,2024.2.4,120,2026-03-30 10h09.01.107589 -0400,
37,37,0,4,2,baseline,136,1.7,-0.06,1.0,-0.316,curv,curv_flat,0.0,0.0,-0.06,rew,input_data/stims/Shape_1.70_1.00.png,input_data/stims/Shape_0.00_2.00.png,input_data/stims/Shape_4.00_2.00.png,1,1,-1.0,-1.0,-1,up,54.029762415913865,None,up,1.3552801240002736,None,None,None,['right'],[0.6356858320068568],[0.7033964589936659],up,1.4850422489689663,None,0,0,0,0,0,37,37,16,293.94801858405117,,,,,,,,,,,,,,,,,293.94019029207993,0.0008787079714238644,294.9820980420336,294.9821450840682,295.01597987499554,296.05386941705365,296.0487535840366,296.049038792029,0.000295375008136034,297.44092004199047,297.44214345898945,297.5019743749872,297.5019743749872,297.5019743749872,297.5019743749872,297.5019743749872,297.5019743749872,297.5019743749872,299.00090408406686,"[-0.316, -0.316, -0.316, -0.316, -0.316, -0.316, -0.316, -0.316, -0.316, -0.316, -0.316, -0.316, -0.316, -0.316, -0.316, -0.316, -0.316, -0.316, -0.316, -0.316, -0.316, -0.316, -0.316, -0.316, -0.316, -0.316, -0.316, -0.316, -0.316, -0.316, -0.316, -0.316, -0.316, -0.316, -0.316, -0.316, -0.316, -0.316, -0.316, -0.316, -0.316, -0.316, -0.316, -0.316, -0.316, -0.316, -0.316, -0.316, -0.316, -0.316, -0.316, -0.316, -0.316, -0.316, -0.312, -0.308, -0.304, -0.3, -0.296, -0.292, -0.288, -0.284, -0.28, -0.276, -0.272, -0.268, -0.264, -0.26, -0.256, -0.252, -0.248, -0.244, -0.24, -0.236, -0.232, -0.228, -0.224, -0.22, -0.216, -0.212, -0.208, -0.204, -0.2, -0.196, -0.192, -0.188, -0.184, -0.18, -0.176, -0.172, -0.168, -0.164, -0.16, -0.156, -0.152, -0.148, -0.144, -0.14, -0.136, -0.132, -0.128, -0.124, -0.12, -0.116, -0.112, -0.108, -0.104, -0.1, -0.096, -0.092, -0.088, -0.084, -0.084, -0.084, -0.084, -0.084, -0.084, -0.084, -0.084, -0.084, -0.084, -0.084, -0.084, -0.084, -0.084, -0.084]",None,None,['right'],[0.6356858320068568],[0.7033964589936659],up,1.4850422489689663,None,299.0013235840015,299.008458708995,299.2563467089785,299.2495005839737,299.2496183749754,299.2563467089785,299.2563467089785,300.2657127090497,300.2657127090497,300.25496345898136,1,5,,,,,,,,,,,,,,,,christina,,B,2026-03-30_10h08.37.458,asymmetry_final_v2,2024.2.4,120,2026-03-30 10h09.01.107589 -0400,
38,38,0,4,2,baseline,120,0.1,-0.38,3.0,-0.144,curv,curv_flat,0.0,0.0,-0.38,rew,input_data/stims/Shape_0.10_3.00.png,input_data/stims/Shape_0.00_2.00.png,input_data/stims/Shape_4.00_2.00.png,1,1,-1.0,1.0,-1,up,54.029762415913865,None,up,1.3552801240002736,None,None,None,"['right', 'left']","[0.8943074579583481, 1.5407175830332562]","[0.18781720800325274, 0.11971358291339129]",up,1.7759857489727437,None,0,0,0,0,0,38,38,0,300.2657127090497,,,,,,,,,,,,,,,,,300.2558375840308,0.000861500040628016,301.34772650001105,301.34776854200754,301.382432750077,302.4161873339908,302.40597529208753,302.40624162508175,0.00027591700199991465,303.6982350840699,303.6996419170173,303.7691986670252,303.7691986670252,303.7691986670252,303.7691986670252,303.7691986670252,303.7691986670252,303.7691986670252,305.55656649998855,"[-0.144, -0.144, -0.144, -0.144, -0.144, -0.144, -0.144, -0.144, -0.144, -0.144, -0.144, -0.144, -0.144, -0.144, -0.144, -0.144, -0.144, -0.144, -0.144, -0.144, -0.144, -0.144, -0.144, -0.144, -0.144, -0.144, -0.144, -0.144, -0.144, -0.144, -0.144, -0.144, -0.144, -0.144, -0.144, -0.144, -0.144, -0.144, -0.144, -0.144, -0.144, -0.144, -0.144, -0.144, -0.144, -0.144, -0.144, -0.144, -0.144, -0.144, -0.144, -0.144, -0.144, -0.144, -0.144, -0.144, -0.144, -0.144, -0.144, -0.144, -0.144, -0.144, -0.144, -0.144, -0.144, -0.144, -0.144, -0.144, -0.144, -0.144, -0.144, -0.144, -0.144, -0.144, -0.144, -0.144, -0.144, -0.144, -0.144, -0.144, -0.144, -0.144, -0.144, -0.14, -0.136, -0.132, -0.128, -0.124, -0.12, -0.116, -0.112, -0.108, -0.104, -0.1, -0.096, -0.092, -0.088, -0.084, -0.084, -0.084, -0.084, -0.084, -0.084, -0.084, -0.084, -0.084, -0.084, -0.084, -0.084, -0.084, -0.084, -0.084, -0.084, -0.084, -0.084, -0.084, -0.084, -0.084, -0.084, -0.084, -0.084, -0.084, -0.084, -0.084, -0.084, -0.084, -0.084, -0.084, -0.084, -0.084, -0.084, -0.084, -0.084, -0.084, -0.088, -0.092, -0.096, -0.1, -0.104, -0.108, -0.112, -0.116, -0.12, -0.12, -0.12, -0.12, -0.12, -0.12, -0.12, -0.12, -0.12, -0.12, -0.12, -0.12, -0.12, -0.12]",None,None,"['right', 'left']","[0.8943074579583481, 1.5407175830332562]","[0.18781720800325274, 0.11971358291339129]",up,1.7759857489727437,None,305.55702354200184,305.5643055840628,305.824018000043,305.81654441705905,305.81663491704967,305.824018000043,305.824018000043,306.8314130420331,306.8314130420331,306.82282441703137,1,5,,,,,,,,,,,,,,,,christina,,B,2026-03-30_10h08.37.458,asymmetry_final_v2,2024.2.4,120,2026-03-30 10h09.01.107589 -0400,
39,39,0,4,2,baseline,133,1.3,-0.14,1.0,-0.264,curv,flat_curv,0.0,0.0,0.14,rew,input_data/stims/Shape_1.30_1.00.png,input_data/stims/Shape_4.00_2.00.png,input_data/stims/Shape_0.00_2.00.png,1,-1,-1.0,-1.0,-1,up,54.029762415913865,None,up,1.3552801240002736,None,None,None,['right'],[0.5391929580364376],[0.6914678750326857],up,1.3840759580489248,None,0,0,0,0,0,39,39,13,306.8314130420331,,,,,,,,,,,,,,,,,306.82369395904243,0.0008583340095356107,307.71558225003537,307.7156246670056,307.74693470902275,308.88727562502027,308.88244404201396,308.8826574169798,0.00022720906417816877,310.3246365840314,310.3258376669837,310.3864465840161,310.3864465840161,310.3864465840161,310.3864465840161,310.3864465840161,310.3864465840161,310.3864465840161,311.7843421250582,"[-0.264, -0.264, -0.264, -0.264, -0.264, -0.264, -0.264, -0.264, -0.264, -0.264, -0.264, -0.264, -0.264, -0.264, -0.264, -0.264, -0.264, -0.264, -0.264, -0.264, -0.264, -0.264, -0.264, -0.264, -0.264, -0.264, -0.264, -0.264, -0.264, -0.264, -0.264, -0.264, -0.264, -0.264, -0.264, -0.264, -0.264, -0.264, -0.264, -0.264, -0.264, -0.264, -0.264, -0.264, -0.264, -0.264, -0.264, -0.264, -0.264, -0.264, -0.264, -0.264, -0.26, -0.256, -0.252, -0.248, -0.244, -0.24, -0.236, -0.232, -0.228, -0.224, -0.22, -0.216, -0.212, -0.208, -0.204, -0.2, -0.196, -0.192, -0.188, -0.184, -0.18, -0.176, -0.172, -0.168, -0.164, -0.16, -0.156, -0.152, -0.148, -0.144, -0.14, -0.136, -0.132, -0.128, -0.124, -0.12, -0.116, -0.112, -0.108, -0.104, -0.1, -0.096, -0.092, -0.088, -0.084, -0.08, -0.076, -0.072, -0.068, -0.064, -0.06, -0.056, -0.056, -0.056, -0.056, -0.056, -0.056, -0.056, -0.056, -0.056, -0.056, -0.056, -0.056, -0.056]",None,None,['right'],[0.5391929580364376],[0.6914678750326857],up,1.3840759580489248,None,311.7847351250239,311.7923672500765,312.0395142500056,312.0330134170363,312.0331225839909,312.0395142500056,,313.08386675000656,,313.03802870900836,0,-1,,,312.0395142500056,313.08386675000656,,,,,,,,,,,,christina,,B,2026-03-30_10h08.37.458,asymmetry_final_v2,2024.2.4,120,2026-03-30 10h09.01.107589 -0400,
0,0,0,5,2,curv_comp,169,0.9,-0.22,1.0,-0.372,curv,flat_curv,-0.2,0.2,0.22,rew,input_data/stims/Shape_0.90_1.00.png,input_data/stims/Shape_4.00_2.00.png,input_data/stims/Shape_0.00_2.00.png,1,-1,-1.0,-1.0,-1,None,,,up,0.9737224159762263,None,None,None,['right'],[0.7270837910473347],[1.3193828749936074],up,2.3039699570508674,None,1,0,1,0,0,0,0,9,435.2367624590406,,434.1703274589963,,,,434.1704071670538,None,,,434.17483545897994,434.18934195907786,434.18934195907786,435.1687467920128,up,0.9737224159762263,None,435.23022041702643,0.06139987497590482,436.122680749977,436.1227273750119,436.16406037507113,437.166565084015,437.1597018750617,437.1600046249805,0.0003172920551151037,438.5019303750014,438.50316537497565,438.5856931670569,438.5856931670569,438.5856931670569,438.5856931670569,438.5856931670569,438.5856931670569,438.5856931670569,440.90465920907445,"[-0.372, -0.372, -0.372, -0.372, -0.372, -0.372, -0.372, -0.372, -0.372, -0.372, -0.372, -0.372, -0.372, -0.372, -0.372, -0.372, -0.372, -0.372, -0.372, -0.372, -0.372, -0.372, -0.372, -0.372, -0.372, -0.372, -0.372, -0.372, -0.372, -0.372, -0.372, -0.372, -0.372, -0.372, -0.372, -0.372, -0.372, -0.372, -0.372, -0.372, -0.372, -0.372, -0.372, -0.372, -0.372, -0.372, -0.372, -0.372, -0.372, -0.372, -0.372, -0.372, -0.372, -0.372, -0.372, -0.372, -0.372, -0.372, -0.372, -0.372, -0.372, -0.372, -0.368, -0.364, -0.36, -0.356, -0.352, -0.348, -0.344, -0.34, -0.336, -0.332, -0.328, -0.324, -0.32, -0.316, -0.312, -0.308, -0.304, -0.3, -0.296, -0.292, -0.288, -0.284, -0.28, -0.276, -0.272, -0.268, -0.264, -0.26, -0.256, -0.252, -0.248, -0.244, -0.24, -0.236, -0.232, -0.228, -0.224, -0.22, -0.216, -0.212, -0.208, -0.204, -0.2, -0.196, -0.192, -0.188, -0.184, -0.18, -0.176, -0.172, -0.168, -0.164, -0.16, -0.156, -0.152, -0.148, -0.144, -0.14, -0.136, -0.132, -0.128, -0.124, -0.12, -0.116, -0.112, -0.108, -0.104, -0.1, -0.096, -0.092, -0.088, -0.084, -0.08, -0.076, -0.072, -0.068, -0.064, -0.06, -0.056, -0.052, -0.048, -0.044, -0.04, -0.036, -0.032, -0.028, -0.024, -0.02, -0.016, -0.012, -0.008, -0.004, 0.0, 0.004, 0.008, 0.012, 0.016, 0.02, 0.024, 0.028, 0.032, 0.036, 0.04, 0.044, 0.048, 0.052, 0.052, 0.052, 0.052, 0.052, 0.052, 0.052, 0.052, 0.052, 0.052, 0.052, 0.052, 0.052, 0.052, 0.052, 0.052, 0.052, 0.052, 0.052, 0.052, 0.052, 0.052, 0.052, 0.052, 0.052, 0.052, 0.052]",None,None,['right'],[0.7270837910473347],[1.3193828749936074],up,2.3039699570508674,None,440.90516320907045,440.9100892500719,441.176614584052,441.1685464590555,441.1686729170615,441.176614584052,,442.2005115420325,,442.18994487507734,0,-1,,,441.176614584052,442.2005115420325,,,313.07817337499,313.08386675000656,313.08386675000656,434.1698285000166,102,15,up,121.08319154102355,None,christina,,B,2026-03-30_10h08.37.458,asymmetry_final_v2,2024.2.4,120,2026-03-30 10h09.01.107589 -0400,
1,1,0,5,2,curv_comp,195,3.5,0.3,3.0,-0.088,flat,flat_curv,-0.2,0.2,-0.3,pen,input_data/stims/Shape_3.50_3.00.png,input_data/stims/Shape_4.00_2.00.png,input_data/stims/Shape_0.00_2.00.png,-1,-1,-1.0,1.0,1,None,,,up,0.9737224159762263,None,None,None,['left'],[0.41005895799025893],[0.6794634161051363],up,1.2026067490223795,None,1,0,1,0,0,1,1,35,442.2005115420325,,,,,,,,,,,,,,,,,442.1908461250132,0.0008854580810293555,443.1327923750505,443.1328339590691,443.1636298340745,444.2569106250303,444.2512587090023,444.2515886250185,0.00033945892937481403,445.69352104200516,445.6948648340767,445.75200041697826,445.75200041697826,445.75200041697826,445.75200041697826,445.75200041697826,445.75200041697826,445.75200041697826,446.96478849998675,"[-0.088, -0.088, -0.088, -0.088, -0.088, -0.088, -0.088, -0.088, -0.088, -0.088, -0.088, -0.088, -0.088, -0.088, -0.088, -0.088, -0.088, -0.088, -0.088, -0.088, -0.088, -0.088, -0.088, -0.088, -0.088, -0.088, -0.088, -0.088, -0.088, -0.088, -0.088, -0.088, -0.088, -0.088, -0.088, -0.088, -0.092, -0.096, -0.1, -0.104, -0.108, -0.112, -0.116, -0.12, -0.124, -0.128, -0.132, -0.136, -0.14, -0.144, -0.148, -0.152, -0.156, -0.16, -0.164, -0.168, -0.172, -0.176, -0.18, -0.184, -0.188, -0.192, -0.196, -0.2, -0.204, -0.208, -0.212, -0.216, -0.22, -0.224, -0.228, -0.232, -0.236, -0.24, -0.244, -0.248, -0.252, -0.256, -0.26, -0.264, -0.268, -0.272, -0.276, -0.28, -0.284, -0.288, -0.292, -0.296, -0.3, -0.304, -0.308, -0.312, -0.316, -0.32, -0.32, -0.32, -0.32, -0.32, -0.32, -0.32, -0.32, -0.32, -0.32, -0.32]",None,None,['left'],[0.41005895799025893],[0.6794634161051363],up,1.2026067490223795,None,446.96515675005503,446.97227779205423,447.23371583397966,447.22308729204815,447.2232088750461,447.23371583397966,,448.2343077920377,,448.223812042037,1,1,447.23371583397966,448.2343077920377,,,,,,,,,,,,,,christina,,B,2026-03-30_10h08.37.458,asymmetry_final_v2,2024.2.4,120,2026-03-30 10h09.01.107589 -0400,
2,2,0,5,2,curv_comp,182,2.3,0.06,3.0,-0.22,flat,curv_flat,-0.2,-0.2,0.06,pen,input_data/stims/Shape_2.30_3.00.png,input_data/stims/Shape_0.00_2.00.png,input_data/stims/Shape_4.00_2.00.png,-1,1,-1.0,1.0,1,None,,,up,0.9737224159762263,None,None,None,['right'],[0.800261082011275],[0.7029283340089023],up,1.602972041000612,None,1,0,1,0,0,2,2,22,448.2343077920377,,,,,,,,,,,,,,,,,448.2243180840742,0.00047641689889132977,449.31627308402676,449.3163115840871,449.3482477919897,450.35498995904345,450.3502874170663,450.35057316708844,0.0002939170226454735,451.84250366699416,451.8438535000896,451.90751583408564,451.90751583408564,451.90751583408564,451.90751583408564,451.90751583408564,451.90751583408564,451.90751583408564,453.52484995906707,"[-0.22, -0.22, -0.22, -0.22, -0.22, -0.22, -0.22, -0.22, -0.22, -0.22, -0.22, -0.22, -0.22, -0.22, -0.22, -0.22, -0.22, -0.22, -0.22, -0.22, -0.22, -0.22, -0.22, -0.22, -0.22, -0.22, -0.22, -0.22, -0.22, -0.22, -0.22, -0.22, -0.22, -0.22, -0.22, -0.22, -0.22, -0.22, -0.22, -0.22, -0.22, -0.22, -0.22, -0.22, -0.22, -0.22, -0.22, -0.22, -0.22, -0.22, -0.22, -0.22, -0.22, -0.22, -0.22, -0.22, -0.22, -0.22, -0.22, -0.22, -0.22, -0.22, -0.22, -0.22, -0.22, -0.22, -0.22, -0.22, -0.22, -0.22, -0.22, -0.22, -0.22, -0.216, -0.212, -0.208, -0.204, -0.2, -0.196, -0.192, -0.188, -0.184, -0.18, -0.176, -0.172, -0.168, -0.164, -0.16, -0.156, -0.152, -0.148, -0.144, -0.14, -0.136, -0.132, -0.128, -0.124, -0.12, -0.116, -0.112, -0.108, -0.104, -0.1, -0.096, -0.092, -0.088, -0.084, -0.08, -0.076, -0.072, -0.068, -0.064, -0.06, -0.056, -0.052, -0.048, -0.044, -0.04, -0.036, -0.032, -0.028, -0.024, -0.02, -0.016, -0.012, -0.008, -0.004, 0.0, 0.004, 0.008, 0.012, 0.012, 0.012, 0.012, 0.012, 0.012, 0.012, 0.012, 0.012, 0.012, 0.012, 0.012]",None,None,['right'],[0.800261082011275],[0.7029283340089023],up,1.602972041000612,None,453.5251982919872,453.5330229590181,453.78373362508137,453.7733289169846,453.773435292067,453.78373362508137,,454.7918619590346,,454.7851023339899,1,1,453.78373362508137,454.7918619590346,,,,,,,,,,,,,,christina,,B,2026-03-30_10h08.37.458,asymmetry_final_v2,2024.2.4,120,2026-03-30 10h09.01.107589 -0400,
3,3,0,5,2,curv_comp,187,2.7,0.14,3.0,0.016,flat,flat_curv,-0.2,0.2,-0.14,pen,input_data/stims/Shape_2.70_3.00.png,input_data/stims/Shape_4.00_2.00.png,input_data/stims/Shape_0.00_2.00.png,-1,-1,-1.0,1.0,1,None,,,up,0.9737224159762263,None,None,None,['left'],[0.665269416058436],[0.5842631249688566],up,1.4030427070101723,None,1,0,1,0,0,3,3,27,454.7918619590346,,,,,,,,,,,,,,,,,454.78578637505416,0.0006760410033166409,455.87763154204004,455.8776764590293,455.9087866670452,456.9076860420173,456.90295379201416,456.90322225005366,0.00027766695711761713,458.3451683340827,458.3463830840774,458.40186733403243,458.40186733403243,458.40186733403243,458.40186733403243,458.40186733403243,458.40186733403243,458.40186733403243,459.8125128339743,"[0.016, 0.016, 0.016, 0.016, 0.016, 0.016, 0.016, 0.016, 0.016, 0.016, 0.016, 0.016, 0.016, 0.016, 0.016, 0.016, 0.016, 0.016, 0.016, 0.016, 0.016, 0.016, 0.016, 0.016, 0.016, 0.016, 0.016, 0.016, 0.016, 0.016, 0.016, 0.016, 0.016, 0.016, 0.016, 0.016, 0.016, 0.016, 0.016, 0.016, 0.016, 0.016, 0.016, 0.016, 0.016, 0.016, 0.016, 0.016, 0.016, 0.016, 0.016, 0.016, 0.016, 0.016, 0.016, 0.016, 0.016, 0.016, 0.016, 0.016, 0.016, 0.012, 0.008, 0.004, 0.0, -0.004, -0.008, -0.012, -0.016, -0.02, -0.024, -0.028, -0.032, -0.036, -0.04, -0.044, -0.048, -0.052, -0.056, -0.06, -0.064, -0.068, -0.072, -0.076, -0.08, -0.084, -0.088, -0.092, -0.096, -0.1, -0.104, -0.108, -0.112, -0.116, -0.12, -0.124, -0.128, -0.132, -0.136, -0.14, -0.144, -0.148, -0.152, -0.152, -0.152, -0.152, -0.152, -0.152, -0.152, -0.152, -0.152, -0.152, -0.152, -0.152, -0.152, -0.152, -0.152, -0.152]",None,None,['left'],[0.665269416058436],[0.5842631249688566],up,1.4030427070101723,None,459.8129292919766,459.8204819590319,460.0756741249934,460.06851541704964,460.06861554202624,460.0756741249934,,461.0736477500759,,461.06784675002564,1,1,460.0756741249934,461.0736477500759,,,,,,,,,,,,,,christina,,B,2026-03-30_10h08.37.458,asymmetry_final_v2,2024.2.4,120,2026-03-30 10h09.01.107589 -0400,
