thisN,thisTrialN,thisRepN,blockN,run,condition,trial_key,stim_file_pos,stim_pos,noise_pos,marker_init,shape,shape_order,true_div,div_pos,target_pos,valence,target_file,img1_file,img2_file,valence_direction,direction,marker_direction,noise_direction,shape_category,valence_resp.keys,valence_resp.rt,valence_resp.duration,block_start_resp.keys,block_start_resp.rt,block_start_resp.duration,marker.response,marker.rt,slider_resp.keys,slider_resp.rt,slider_resp.duration,submit_resp.keys,submit_resp.rt,submit_resp.duration,blocks.thisRepN,blocks.thisTrialN,blocks.thisN,blocks.thisIndex,trials.thisRepN,trials.thisTrialN,trials.thisN,trials.thisIndex,thisRow.t,notes,valence_instruct.started,valence_image.started,valence_text.started,valence_resp.started,valence_instruct.stopped,blocks.valence_resp.keys,blocks.valence_resp.rt,blocks.valence_resp.duration,block_start.started,block_start_text.started,block_start_resp.started,block_start.stopped,blocks.block_start_resp.keys,blocks.block_start_resp.rt,blocks.block_start_resp.duration,baseline.started,ISI1.started,baseline.stopped,stim.started,target_stim.started,target_stim.stopped,stim.stopped,delay.started,ISI2.started,delay.stopped,task.started,img1.started,img2.started,divider_line.started,slider_line.started,marker.started,slider_resp.started,submit_resp.started,task.stopped,positions,trials.marker.response,trials.marker.rt,trials.slider_resp.keys,trials.slider_resp.rt,trials.slider_resp.duration,trials.submit_resp.keys,trials.submit_resp.rt,trials.submit_resp.duration,anticipation.started,anticipation_text.started,anticipation_text.stopped,anticipation.stopped,feedback.started,no_resp_text.started,three_cross.started,no_resp_text.stopped,three_cross.stopped,feedback.stopped,correct,outcome,three_coin.started,three_coin.stopped,one_coin.started,one_coin.stopped,one_cross.started,one_cross.stopped,block_end.started,block_end_text.started,block_end_resp.started,block_end.stopped,block_outcome,block_bonus,blocks.block_end_resp.keys,blocks.block_end_resp.rt,blocks.block_end_resp.duration,subj,difficulty,sess_type,date,expName,psychopyVersion,frameRate,expStart,
0,0,0,1,1,baseline,18,1.9,-0.02,1.0,-0.124,curv,curv_flat,0.0,0.0,-0.02,pen,input_data/stims/Shape_1.90_1.00.png,input_data/stims/Shape_0.00_2.00.png,input_data/stims/Shape_4.00_2.00.png,-1,1,-1.0,-1.0,-1,up,2.24640104197897,None,up,2.0151355830021203,None,None,None,"['right', 'right', 'right', 'right', 'left']","[0.6519626670051366, 1.0521862499881536, 1.2963816249975935, 1.5823332919972017, 2.0550496670184657]","[0.2673291659448296, 0.11601741705089808, 0.05194262496661395, 0.12008466594852507, 0.1040712499525398]",up,2.32109716697596,None,0,0,0,0,0,0,0,18,4.8666595419636,,0.260471084038727,0.4565874170511961,0.4565874170511961,0.4565874170511961,2.71025191701483,up,2.24640104197897,None,2.719142667017877,2.772946959012188,2.772946959012188,4.791872250032611,up,2.0151355830021203,None,4.8497224589809775,0.057778249960392714,5.942452042014338,5.9424990840489045,5.994969874969684,7.000968209002167,6.991443666978739,6.9917597089661285,0.0003250830341130495,8.483708042069338,8.484935584012419,8.58807279204484,8.58807279204484,8.58807279204484,8.58807279204484,8.58807279204484,8.58807279204484,8.58807279204484,10.918769084033556,"[-0.124, -0.124, -0.124, -0.124, -0.124, -0.124, -0.124, -0.124, -0.124, -0.124, -0.124, -0.124, -0.124, -0.124, -0.124, -0.124, -0.124, -0.124, -0.124, -0.124, -0.124, -0.124, -0.124, -0.124, -0.124, -0.124, -0.124, -0.124, -0.124, -0.124, -0.124, -0.124, -0.124, -0.124, -0.124, -0.124, -0.124, -0.124, -0.124, -0.124, -0.124, -0.124, -0.124, -0.124, -0.124, -0.124, -0.124, -0.124, -0.124, -0.124, -0.124, -0.124, -0.124, -0.124, -0.124, -0.124, -0.12, -0.116, -0.112, -0.108, -0.104, -0.1, -0.096, -0.092, -0.088, -0.084, -0.08, -0.076, -0.072, -0.068, -0.064, -0.06, -0.056, -0.052, -0.048, -0.048, -0.048, -0.048, -0.048, -0.048, -0.048, -0.048, -0.048, -0.048, -0.048, -0.044, -0.04, -0.036, -0.032, -0.028, -0.024, -0.02, -0.016, -0.016, -0.016, -0.016, -0.016, -0.016, -0.016, -0.016, -0.016, -0.016, -0.012, -0.008, -0.004, 0.0, 0.0, 0.0, 0.0, 0.0, 0.0, 0.0, 0.0, 0.0, 0.0, 0.0, 0.0, 0.0, 0.0, 0.0, 0.0, 0.0, 0.0, 0.0, 0.0, 0.004, 0.008, 0.012, 0.016, 0.02, 0.024, 0.028, 0.032, 0.036, 0.04, 0.04, 0.04, 0.04, 0.04, 0.04, 0.04, 0.04, 0.04, 0.04, 0.04, 0.04, 0.04, 0.04, 0.04, 0.04, 0.04, 0.04, 0.04, 0.04, 0.04, 0.04, 0.04, 0.04, 0.04, 0.04, 0.04, 0.04, 0.04, 0.04, 0.04, 0.04, 0.04, 0.04, 0.036, 0.032, 0.028, 0.024, 0.02, 0.016, 0.012, 0.008, 0.004, 0.004, 0.004, 0.004, 0.004, 0.004, 0.004, 0.004, 0.004, 0.004, 0.004, 0.004, 0.004, 0.004, 0.004, 0.004]",None,None,"['right', 'right', 'right', 'right', 'left']","[0.6519626670051366, 1.0521862499881536, 1.2963816249975935, 1.5823332919972017, 2.0550496670184657]","[0.2673291659448296, 0.11601741705089808, 0.05194262496661395, 0.12008466594852507, 0.1040712499525398]",up,2.32109716697596,None,10.91908024996519,10.926739584072493,11.177732291980647,11.167803499964066,11.167893041973002,11.177732291980647,11.177732291980647,12.185284334002063,12.185284334002063,12.176683041965589,0,-5,,,,,,,,,,,,,,,,arnav,,A,2026-03-29_16h11.38.547,asymmetry_final_v2,2024.2.4,120,2026-03-29 16h11.49.915224 -0400,
1,1,0,1,1,baseline,23,2.3,0.06,3.0,0.14,flat,flat_curv,0.0,0.0,-0.06,rew,input_data/stims/Shape_2.30_3.00.png,input_data/stims/Shape_4.00_2.00.png,input_data/stims/Shape_0.00_2.00.png,1,-1,1.0,1.0,1,up,2.24640104197897,None,up,2.0151355830021203,None,None,None,"['left', 'left', 'left']","[0.5557592490222305, 1.2348063740646467, 2.052827583043836]","[0.2482620000373572, 0.1159978749928996, 0.09219083294738084]",up,2.296101541025564,None,0,0,0,0,0,1,1,23,12.185284334002063,,,,,,,,,,,,,,,,,12.177194167044945,0.0004761249292641878,13.119119375012815,13.119172209058888,13.151721542002633,14.14995870902203,14.14344441704452,14.143717000028118,0.000278000021353364,15.43573374999687,15.437117584049702,15.50032279198058,15.50032279198058,15.50032279198058,15.50032279198058,15.50032279198058,15.50032279198058,15.50032279198058,17.800027334014885,"[0.14, 0.14, 0.14, 0.14, 0.14, 0.14, 0.14, 0.14, 0.14, 0.14, 0.14, 0.14, 0.14, 0.14, 0.14, 0.14, 0.14, 0.14, 0.14, 0.14, 0.14, 0.14, 0.14, 0.14, 0.14, 0.14, 0.14, 0.14, 0.14, 0.14, 0.14, 0.14, 0.14, 0.14, 0.14, 0.14, 0.14, 0.14, 0.14, 0.14, 0.14, 0.14, 0.14, 0.14, 0.14, 0.14, 0.14, 0.14, 0.14, 0.136, 0.132, 0.128, 0.124, 0.12, 0.116, 0.112, 0.108, 0.104, 0.1, 0.096, 0.092, 0.088, 0.084, 0.08, 0.076, 0.072, 0.068, 0.064, 0.06, 0.056, 0.056, 0.056, 0.056, 0.056, 0.056, 0.056, 0.056, 0.056, 0.056, 0.056, 0.056, 0.056, 0.056, 0.056, 0.056, 0.056, 0.056, 0.056, 0.056, 0.056, 0.056, 0.056, 0.056, 0.056, 0.056, 0.056, 0.056, 0.056, 0.056, 0.056, 0.056, 0.056, 0.056, 0.056, 0.052, 0.048, 0.044, 0.04, 0.036, 0.032, 0.032, 0.032, 0.032, 0.032, 0.032, 0.032, 0.032, 0.032, 0.032, 0.032, 0.032, 0.032, 0.032, 0.032, 0.032, 0.032, 0.032, 0.032, 0.032, 0.032, 0.032, 0.032, 0.032, 0.032, 0.032, 0.032, 0.032, 0.032, 0.032, 0.032, 0.032, 0.032, 0.032, 0.032, 0.032, 0.032, 0.032, 0.032, 0.032, 0.032, 0.032, 0.032, 0.032, 0.032, 0.032, 0.032, 0.032, 0.032, 0.032, 0.032, 0.032, 0.032, 0.032, 0.032, 0.032, 0.032, 0.032, 0.032, 0.032, 0.032, 0.032, 0.032, 0.028, 0.024, 0.02, 0.016, 0.012, 0.008, 0.004, 0.0, 0.0, 0.0, 0.0, 0.0, 0.0, 0.0, 0.0, 0.0, 0.0, 0.0, 0.0, 0.0, 0.0, 0.0, 0.0]",None,None,"['left', 'left', 'left']","[0.5557592490222305, 1.2348063740646467, 2.052827583043836]","[0.2482620000373572, 0.1159978749928996, 0.09219083294738084]",up,2.296101541025564,None,17.80057920899708,17.80509208398871,18.059979625046253,18.05172454204876,18.051862459047697,18.059979625046253,,19.066872042021714,,19.05759170895908,1,5,18.059979625046253,19.066872042021714,,,,,,,,,,,,,,arnav,,A,2026-03-29_16h11.38.547,asymmetry_final_v2,2024.2.4,120,2026-03-29 16h11.49.915224 -0400,
2,2,0,1,1,baseline,17,1.7,-0.06,3.0,0.232,curv,flat_curv,0.0,0.0,0.06,pen,input_data/stims/Shape_1.70_3.00.png,input_data/stims/Shape_4.00_2.00.png,input_data/stims/Shape_0.00_2.00.png,-1,-1,1.0,1.0,-1,up,2.24640104197897,None,up,2.0151355830021203,None,None,None,"['left', 'left']","[0.615341917029582, 1.2478093330282718]","[0.41582774999551475, 0.2518520000157878]",up,1.6201962920604274,None,0,0,0,0,0,2,2,17,19.066872042021714,,,,,,,,,,,,,,,,,19.058513959054835,0.0009071669774129987,20.05053837504238,20.050595959066413,20.08198291703593,21.125367250060663,21.119767124997452,21.120002250070684,0.00023441703524440527,22.411870041978545,22.413152666995302,22.47550233406946,22.47550233406946,22.47550233406946,22.47550233406946,22.47550233406946,22.47550233406946,22.47550233406946,24.103293542051688,"[0.232, 0.232, 0.232, 0.232, 0.232, 0.232, 0.232, 0.232, 0.232, 0.232, 0.232, 0.232, 0.232, 0.232, 0.232, 0.232, 0.232, 0.232, 0.232, 0.232, 0.232, 0.232, 0.232, 0.232, 0.232, 0.232, 0.232, 0.232, 0.232, 0.232, 0.232, 0.232, 0.232, 0.232, 0.232, 0.232, 0.232, 0.232, 0.232, 0.232, 0.232, 0.232, 0.232, 0.232, 0.232, 0.232, 0.232, 0.232, 0.232, 0.232, 0.232, 0.232, 0.232, 0.232, 0.232, 0.232, 0.232, 0.228, 0.224, 0.22, 0.216, 0.212, 0.208, 0.204, 0.2, 0.196, 0.192, 0.188, 0.184, 0.18, 0.176, 0.172, 0.168, 0.164, 0.16, 0.156, 0.152, 0.148, 0.144, 0.14, 0.136, 0.132, 0.132, 0.132, 0.132, 0.132, 0.132, 0.132, 0.132, 0.132, 0.132, 0.132, 0.132, 0.132, 0.132, 0.128, 0.124, 0.12, 0.116, 0.112, 0.108, 0.104, 0.1, 0.096, 0.092, 0.088, 0.084, 0.08, 0.076, 0.072, 0.068, 0.064, 0.06, 0.056, 0.052, 0.048, 0.044, 0.044, 0.044, 0.044, 0.044, 0.044, 0.044, 0.044, 0.044, 0.044, 0.044, 0.044, 0.044, 0.044, 0.044]",None,None,"['left', 'left']","[0.615341917029582, 1.2478093330282718]","[0.41582774999551475, 0.2518520000157878]",up,1.6201962920604274,None,24.103595667053014,24.109823334030807,24.357482666964643,24.351832375046797,24.35193920903839,24.357482666964643,,25.358282209024765,,25.35176233400125,1,1,,,24.357482666964643,25.358282209024765,,,,,,,,,,,,arnav,,A,2026-03-29_16h11.38.547,asymmetry_final_v2,2024.2.4,120,2026-03-29 16h11.49.915224 -0400,
3,3,0,1,1,baseline,15,1.5,-0.1,1.0,0.384,curv,flat_curv,0.0,0.0,0.1,pen,input_data/stims/Shape_1.50_1.00.png,input_data/stims/Shape_4.00_2.00.png,input_data/stims/Shape_0.00_2.00.png,-1,-1,1.0,-1.0,-1,up,2.24640104197897,None,up,2.0151355830021203,None,None,None,"['left', 'left']","[0.5874164159176871, 1.2606529159238562]","[0.2878378750756383, 0.11610229208599776]",up,1.5103206660132855,None,0,0,0,0,0,3,3,15,25.358282209024765,,,,,,,,,,,,,,,,,25.352578124962747,0.0008062919368967414,26.44463166699279,26.444693249999546,26.478515333961695,27.47311433404684,27.46779579203576,27.46818833402358,0.0003922909963876009,28.910128458985128,28.91156466701068,28.976524917059578,28.976524917059578,28.976524917059578,28.976524917059578,28.976524917059578,28.976524917059578,28.976524917059578,30.489664874970913,"[0.384, 0.384, 0.384, 0.384, 0.384, 0.384, 0.384, 0.384, 0.384, 0.384, 0.384, 0.384, 0.384, 0.384, 0.384, 0.384, 0.384, 0.384, 0.384, 0.384, 0.384, 0.384, 0.384, 0.384, 0.384, 0.384, 0.384, 0.384, 0.384, 0.384, 0.384, 0.384, 0.384, 0.384, 0.384, 0.384, 0.384, 0.384, 0.384, 0.384, 0.384, 0.384, 0.384, 0.384, 0.384, 0.384, 0.384, 0.384, 0.384, 0.384, 0.384, 0.384, 0.384, 0.384, 0.384, 0.384, 0.38, 0.376, 0.372, 0.368, 0.364, 0.36, 0.356, 0.352, 0.348, 0.344, 0.34, 0.336, 0.332, 0.328, 0.324, 0.32, 0.316, 0.312, 0.308, 0.304, 0.3, 0.3, 0.3, 0.3, 0.3, 0.3, 0.3, 0.3, 0.3, 0.3, 0.3, 0.3, 0.3, 0.3, 0.3, 0.3, 0.3, 0.3, 0.3, 0.3, 0.3, 0.3, 0.3, 0.3, 0.3, 0.3, 0.3, 0.3, 0.3, 0.3, 0.3, 0.3, 0.3, 0.3, 0.296, 0.292, 0.288, 0.284, 0.28, 0.276, 0.272, 0.268, 0.268, 0.268, 0.268, 0.268, 0.268, 0.268, 0.268, 0.268, 0.268, 0.268, 0.268, 0.268]",None,None,"['left', 'left']","[0.5874164159176871, 1.2606529159238562]","[0.2878378750756383, 0.11610229208599776]",up,1.5103206660132855,None,30.490189583972096,30.49768754199613,30.868080042069778,30.85294116695877,30.853102541994303,30.868080042069778,,31.86785433406476,,31.857262709061615,1,1,,,30.868080042069778,31.86785433406476,,,,,,,,,,,,arnav,,A,2026-03-29_16h11.38.547,asymmetry_final_v2,2024.2.4,120,2026-03-29 16h11.49.915224 -0400,
4,4,0,1,1,baseline,29,2.9,0.18,3.0,0.28,flat,flat_curv,0.0,0.0,-0.18,rew,input_data/stims/Shape_2.90_3.00.png,input_data/stims/Shape_4.00_2.00.png,input_data/stims/Shape_0.00_2.00.png,1,-1,1.0,1.0,1,up,2.24640104197897,None,up,2.0151355830021203,None,None,None,"['left', 'left']","[0.34499487502034754, 1.8465557500021532]","[1.4393843329744413, 0.040027417009696364]",up,1.9954079169547185,None,0,0,0,0,0,4,4,29,31.86785433406476,,,,,,,,,,,,,,,,,31.858161250012927,0.0008814999600872397,32.95016124995891,32.95022037497256,32.98465416696854,33.983536084066145,33.975824667024426,33.97611062496435,0.0002902079140767455,35.31810570904054,35.319586334051564,35.38252816698514,35.38252816698514,35.38252816698514,35.38252816698514,35.38252816698514,35.38252816698514,35.38252816698514,37.386650042026304,"[0.28, 0.28, 0.28, 0.28, 0.28, 0.28, 0.28, 0.28, 0.28, 0.28, 0.28, 0.28, 0.28, 0.28, 0.28, 0.28, 0.28, 0.28, 0.28, 0.28, 0.28, 0.28, 0.28, 0.28, 0.28, 0.28, 0.28, 0.28, 0.28, 0.28, 0.28, 0.28, 0.28, 0.28, 0.28, 0.28, 0.276, 0.272, 0.268, 0.264, 0.26, 0.256, 0.252, 0.248, 0.244, 0.24, 0.236, 0.232, 0.228, 0.224, 0.22, 0.216, 0.212, 0.208, 0.204, 0.2, 0.196, 0.192, 0.188, 0.184, 0.18, 0.176, 0.172, 0.168, 0.164, 0.16, 0.156, 0.152, 0.148, 0.144, 0.14, 0.136, 0.132, 0.128, 0.124, 0.12, 0.116, 0.112, 0.108, 0.104, 0.1, 0.096, 0.092, 0.088, 0.084, 0.08, 0.076, 0.072, 0.068, 0.064, 0.06, 0.056, 0.052, 0.048, 0.044, 0.04, 0.036, 0.032, 0.028, 0.024, 0.02, 0.016, 0.012, 0.008, 0.004, 0.0, -0.004, -0.008, -0.012, -0.016, -0.02, -0.024, -0.028, -0.032, -0.036, -0.04, -0.044, -0.048, -0.052, -0.056, -0.06, -0.064, -0.068, -0.072, -0.076, -0.08, -0.084, -0.088, -0.092, -0.096, -0.1, -0.104, -0.108, -0.112, -0.116, -0.12, -0.124, -0.128, -0.132, -0.136, -0.14, -0.144, -0.148, -0.152, -0.156, -0.16, -0.164, -0.168, -0.172, -0.176, -0.176, -0.176, -0.176, -0.176, -0.176, -0.176, -0.18, -0.184, -0.188, -0.188, -0.188, -0.188, -0.188, -0.188, -0.188, -0.188, -0.188, -0.188, -0.188]",None,None,"['left', 'left']","[0.34499487502034754, 1.8465557500021532]","[1.4393843329744413, 0.040027417009696364]",up,1.9954079169547185,None,37.387142959050834,37.394495208980516,37.64107366697863,37.63461783400271,37.634736499981955,37.64107366697863,,38.640504167065956,,38.634648250066675,1,5,37.64107366697863,38.640504167065956,,,,,,,,,,,,,,arnav,,A,2026-03-29_16h11.38.547,asymmetry_final_v2,2024.2.4,120,2026-03-29 16h11.49.915224 -0400,
5,5,0,1,1,baseline,16,1.7,-0.06,1.0,0.288,curv,curv_flat,0.0,0.0,-0.06,pen,input_data/stims/Shape_1.70_1.00.png,input_data/stims/Shape_0.00_2.00.png,input_data/stims/Shape_4.00_2.00.png,-1,1,1.0,-1.0,-1,up,2.24640104197897,None,up,2.0151355830021203,None,None,None,['left'],[0.40503979194909334],[1.3553715000161901],up,1.8720072079449892,None,0,0,0,0,0,5,5,16,38.640504167065956,,,,,,,,,,,,,,,,,38.63509904197417,0.00044058298226445913,39.67698812496383,39.67705141706392,39.71233158407267,40.717299542040564,40.71041858405806,40.71068891696632,0.0002668749075382948,42.10267695900984,42.10407266695984,42.1675943339942,42.1675943339942,42.1675943339942,42.1675943339942,42.1675943339942,42.1675943339942,42.1675943339942,44.05339091701899,"[0.288, 0.288, 0.288, 0.288, 0.288, 0.288, 0.288, 0.288, 0.288, 0.288, 0.288, 0.288, 0.288, 0.288, 0.288, 0.288, 0.288, 0.288, 0.288, 0.288, 0.288, 0.288, 0.288, 0.288, 0.288, 0.288, 0.288, 0.288, 0.288, 0.288, 0.288, 0.288, 0.288, 0.288, 0.288, 0.288, 0.288, 0.288, 0.288, 0.288, 0.288, 0.288, 0.284, 0.28, 0.276, 0.272, 0.268, 0.264, 0.26, 0.256, 0.252, 0.248, 0.244, 0.24, 0.236, 0.232, 0.228, 0.224, 0.22, 0.216, 0.212, 0.208, 0.204, 0.2, 0.196, 0.192, 0.188, 0.184, 0.18, 0.176, 0.172, 0.168, 0.164, 0.16, 0.156, 0.152, 0.148, 0.144, 0.14, 0.136, 0.132, 0.128, 0.124, 0.12, 0.116, 0.112, 0.108, 0.104, 0.1, 0.096, 0.092, 0.088, 0.084, 0.08, 0.076, 0.072, 0.068, 0.064, 0.06, 0.056, 0.052, 0.048, 0.044, 0.04, 0.036, 0.032, 0.028, 0.024, 0.02, 0.016, 0.012, 0.008, 0.004, 0.0, -0.004, -0.008, -0.012, -0.016, -0.02, -0.024, -0.028, -0.032, -0.036, -0.04, -0.044, -0.048, -0.052, -0.056, -0.06, -0.064, -0.068, -0.072, -0.076, -0.08, -0.084, -0.088, -0.092, -0.096, -0.1, -0.104, -0.108, -0.112, -0.116, -0.12, -0.124, -0.124, -0.124, -0.124, -0.124, -0.124, -0.124, -0.124, -0.124, -0.124, -0.124, -0.124]",None,None,['left'],[0.40503979194909334],[1.3553715000161901],up,1.8720072079449892,None,44.05387079203501,44.061385834007524,44.30732283403631,44.30089041707106,44.30099000001792,44.30732283403631,,45.30673075001687,,45.301293917000294,1,1,,,44.30732283403631,45.30673075001687,,,,,,,,,,,,arnav,,A,2026-03-29_16h11.38.547,asymmetry_final_v2,2024.2.4,120,2026-03-29 16h11.49.915224 -0400,
6,6,0,1,1,baseline,13,1.3,-0.14,3.0,-0.36,curv,flat_curv,0.0,0.0,0.14,pen,input_data/stims/Shape_1.30_3.00.png,input_data/stims/Shape_4.00_2.00.png,input_data/stims/Shape_0.00_2.00.png,-1,-1,-1.0,1.0,-1,up,2.24640104197897,None,up,2.0151355830021203,None,None,None,['right'],[0.6197982920566574],[1.8514373749494553],up,2.6557413330301642,None,0,0,0,0,0,6,6,13,45.30673075001687,,,,,,,,,,,,,,,,,45.302028208971024,0.0007198749808594584,46.393948083976284,46.39400375005789,46.4318630839698,47.49024679197464,47.48224029201083,47.482559374999255,0.0003328749444335699,48.82449708401691,48.82585366698913,48.886725084041245,48.886725084041245,48.886725084041245,48.886725084041245,48.886725084041245,48.886725084041245,48.886725084041245,51.552267875056714,"[-0.36, -0.36, -0.36, -0.36, -0.36, -0.36, -0.36, -0.36, -0.36, -0.36, -0.36, -0.36, -0.36, -0.36, -0.36, -0.36, -0.36, -0.36, -0.36, -0.36, -0.36, -0.36, -0.36, -0.36, -0.36, -0.36, -0.36, -0.36, -0.36, -0.36, -0.36, -0.36, -0.36, -0.36, -0.36, -0.36, -0.36, -0.36, -0.36, -0.36, -0.36, -0.36, -0.36, -0.36, -0.36, -0.36, -0.36, -0.36, -0.36, -0.36, -0.36, -0.36, -0.36, -0.36, -0.36, -0.36, -0.36, -0.356, -0.352, -0.348, -0.344, -0.34, -0.336, -0.332, -0.328, -0.324, -0.32, -0.316, -0.312, -0.308, -0.304, -0.3, -0.296, -0.292, -0.288, -0.284, -0.28, -0.276, -0.272, -0.268, -0.264, -0.26, -0.256, -0.252, -0.248, -0.244, -0.24, -0.236, -0.232, -0.228, -0.224, -0.22, -0.216, -0.212, -0.208, -0.204, -0.2, -0.196, -0.192, -0.188, -0.184, -0.18, -0.176, -0.172, -0.168, -0.164, -0.16, -0.156, -0.152, -0.148, -0.144, -0.14, -0.136, -0.132, -0.128, -0.124, -0.12, -0.116, -0.112, -0.108, -0.104, -0.1, -0.096, -0.092, -0.088, -0.084, -0.08, -0.076, -0.072, -0.068, -0.064, -0.06, -0.056, -0.052, -0.048, -0.044, -0.04, -0.036, -0.032, -0.028, -0.024, -0.02, -0.016, -0.012, -0.008, -0.004, 0.0, 0.004, 0.008, 0.012, 0.016, 0.02, 0.024, 0.028, 0.032, 0.036, 0.04, 0.044, 0.048, 0.052, 0.056, 0.06, 0.064, 0.068, 0.072, 0.076, 0.08, 0.084, 0.088, 0.092, 0.096, 0.1, 0.104, 0.108, 0.112, 0.116, 0.12, 0.124, 0.128, 0.132, 0.136, 0.14, 0.144, 0.148, 0.152, 0.156, 0.16, 0.164, 0.168, 0.172, 0.172, 0.172, 0.172, 0.172, 0.172, 0.172, 0.172, 0.172, 0.172, 0.172, 0.172, 0.172, 0.172, 0.172, 0.172, 0.172, 0.172]",None,None,['right'],[0.6197982920566574],[1.8514373749494553],up,2.6557413330301642,None,51.552633792045526,51.56716866698116,51.84272466704715,51.83529570896644,51.83539516699966,51.84272466704715,,52.88349962502252,,52.8746365000261,1,1,,,51.84272466704715,52.88349962502252,,,,,,,,,,,,arnav,,A,2026-03-29_16h11.38.547,asymmetry_final_v2,2024.2.4,120,2026-03-29 16h11.49.915224 -0400,
7,7,0,1,1,baseline,10,1.1,-0.18,3.0,-0.128,curv,curv_flat,0.0,0.0,-0.18,pen,input_data/stims/Shape_1.10_3.00.png,input_data/stims/Shape_0.00_2.00.png,input_data/stims/Shape_4.00_2.00.png,-1,1,-1.0,1.0,-1,up,2.24640104197897,None,up,2.0151355830021203,None,None,None,['right'],[0.7905910830013454],[0.15529004100244492],up,1.0914611660409719,None,0,0,0,0,0,7,7,10,52.88349962502252,,,,,,,,,,,,,,,,,52.87573125003837,0.0010788750369101763,53.76768699998502,53.767740292008966,53.80603045900352,54.856422499986365,54.851398000027984,54.851698750047944,0.00030025001615285873,56.14362954196986,56.145068834070116,56.21030666702427,56.21030666702427,56.21030666702427,56.21030666702427,56.21030666702427,56.21030666702427,56.21030666702427,57.32027829205617,"[-0.128, -0.128, -0.128, -0.128, -0.128, -0.128, -0.128, -0.128, -0.128, -0.128, -0.128, -0.128, -0.128, -0.128, -0.128, -0.128, -0.128, -0.128, -0.128, -0.128, -0.128, -0.128, -0.128, -0.128, -0.128, -0.128, -0.128, -0.128, -0.128, -0.128, -0.128, -0.128, -0.128, -0.128, -0.128, -0.128, -0.128, -0.128, -0.128, -0.128, -0.128, -0.128, -0.128, -0.128, -0.128, -0.128, -0.128, -0.128, -0.128, -0.128, -0.128, -0.128, -0.128, -0.128, -0.128, -0.128, -0.128, -0.128, -0.128, -0.128, -0.128, -0.128, -0.128, -0.128, -0.128, -0.128, -0.128, -0.128, -0.128, -0.128, -0.128, -0.128, -0.128, -0.124, -0.12, -0.116, -0.112, -0.108, -0.104, -0.1, -0.096, -0.092, -0.088, -0.084, -0.08, -0.076, -0.076, -0.076, -0.076, -0.076, -0.076, -0.076, -0.076, -0.076, -0.076, -0.076, -0.076, -0.076, -0.076, -0.076]",None,None,['right'],[0.7905910830013454],[0.15529004100244492],up,1.0914611660409719,None,57.320658750017174,57.32773229200393,57.57549537497107,57.56881583400536,57.568928624968976,57.57549537497107,,58.59182762505952,,58.585297749959864,1,1,,,57.57549537497107,58.59182762505952,,,,,,,,,,,,arnav,,A,2026-03-29_16h11.38.547,asymmetry_final_v2,2024.2.4,120,2026-03-29 16h11.49.915224 -0400,
8,8,0,1,1,baseline,14,1.5,-0.1,3.0,-0.34,curv,curv_flat,0.0,0.0,-0.1,pen,input_data/stims/Shape_1.50_3.00.png,input_data/stims/Shape_0.00_2.00.png,input_data/stims/Shape_4.00_2.00.png,-1,1,-1.0,1.0,-1,up,2.24640104197897,None,up,2.0151355830021203,None,None,None,['right'],[0.4315020410576835],[0.8353807919193059],up,1.3968835830455646,None,0,0,0,0,0,8,8,14,58.59182762505952,,,,,,,,,,,,,,,,,58.58629812498111,0.0009837920079007745,59.6283018339891,59.62835591705516,59.66235483402852,60.77546274999622,60.769996833987534,60.770347416982986,0.00035924999974668026,62.16227941703983,62.16345812496729,62.224382624961436,62.224382624961436,62.224382624961436,62.224382624961436,62.224382624961436,62.224382624961436,62.224382624961436,63.63055208406877,"[-0.34, -0.34, -0.34, -0.34, -0.34, -0.34, -0.34, -0.34, -0.34, -0.34, -0.34, -0.34, -0.34, -0.34, -0.34, -0.34, -0.34, -0.34, -0.34, -0.34, -0.34, -0.34, -0.34, -0.34, -0.34, -0.34, -0.34, -0.34, -0.34, -0.34, -0.34, -0.34, -0.34, -0.34, -0.34, -0.34, -0.34, -0.34, -0.34, -0.34, -0.34, -0.34, -0.336, -0.332, -0.328, -0.324, -0.32, -0.316, -0.312, -0.308, -0.304, -0.3, -0.296, -0.292, -0.288, -0.284, -0.28, -0.276, -0.272, -0.268, -0.264, -0.26, -0.256, -0.252, -0.248, -0.244, -0.24, -0.236, -0.232, -0.228, -0.224, -0.22, -0.216, -0.212, -0.208, -0.204, -0.2, -0.196, -0.192, -0.188, -0.184, -0.18, -0.176, -0.172, -0.168, -0.164, -0.16, -0.156, -0.152, -0.148, -0.144, -0.14, -0.136, -0.132, -0.128, -0.124, -0.12, -0.116, -0.112, -0.108, -0.104, -0.1, -0.096, -0.092, -0.088, -0.084, -0.08, -0.076, -0.076, -0.076, -0.076, -0.076, -0.076, -0.076, -0.076, -0.076, -0.076, -0.076, -0.076, -0.076, -0.076, -0.076, -0.076]",None,None,['right'],[0.4315020410576835],[0.8353807919193059],up,1.3968835830455646,None,63.63091050006915,63.637945999973454,63.89264554204419,63.88553370896261,63.88566683395766,63.89264554204419,,64.91896495898254,,64.9023367089685,1,1,,,63.89264554204419,64.91896495898254,,,,,,,,,,,,arnav,,A,2026-03-29_16h11.38.547,asymmetry_final_v2,2024.2.4,120,2026-03-29 16h11.49.915224 -0400,
9,9,0,1,1,baseline,4,0.5,-0.3,1.0,0.124,curv,curv_flat,0.0,0.0,-0.3,pen,input_data/stims/Shape_0.50_1.00.png,input_data/stims/Shape_0.00_2.00.png,input_data/stims/Shape_4.00_2.00.png,-1,1,1.0,-1.0,-1,up,2.24640104197897,None,up,2.0151355830021203,None,None,None,['left'],[0.4388942909426987],[1.446998875006102],up,1.9949617499951273,None,0,0,0,0,0,9,9,4,64.91896495898254,,,,,,,,,,,,,,,,,64.9028032090282,0.00045837496872991323,65.99470120901242,65.99475666705985,66.02824424998835,67.0565532919718,67.03001345903613,67.03021683404222,0.0002045829314738512,68.42216212500352,68.42356820905115,68.48556041705888,68.48556041705888,68.48556041705888,68.48556041705888,68.48556041705888,68.48556041705888,68.48556041705888,70.48532533401158,"[0.124, 0.124, 0.124, 0.124, 0.124, 0.124, 0.124, 0.124, 0.124, 0.124, 0.124, 0.124, 0.124, 0.124, 0.124, 0.124, 0.124, 0.124, 0.124, 0.124, 0.124, 0.124, 0.124, 0.124, 0.124, 0.124, 0.124, 0.124, 0.124, 0.124, 0.124, 0.124, 0.124, 0.124, 0.124, 0.124, 0.124, 0.124, 0.124, 0.124, 0.124, 0.124, 0.124, 0.124, 0.124, 0.12, 0.116, 0.112, 0.108, 0.104, 0.1, 0.096, 0.092, 0.088, 0.084, 0.08, 0.076, 0.072, 0.068, 0.064, 0.06, 0.056, 0.052, 0.048, 0.044, 0.04, 0.036, 0.032, 0.028, 0.024, 0.02, 0.016, 0.012, 0.008, 0.004, 0.0, -0.004, -0.008, -0.012, -0.016, -0.02, -0.024, -0.028, -0.032, -0.036, -0.04, -0.044, -0.048, -0.052, -0.056, -0.06, -0.064, -0.068, -0.072, -0.076, -0.08, -0.084, -0.088, -0.092, -0.096, -0.1, -0.104, -0.108, -0.112, -0.116, -0.12, -0.124, -0.128, -0.132, -0.136, -0.14, -0.144, -0.148, -0.152, -0.156, -0.16, -0.164, -0.168, -0.172, -0.176, -0.18, -0.184, -0.188, -0.192, -0.196, -0.2, -0.204, -0.208, -0.212, -0.216, -0.22, -0.224, -0.228, -0.232, -0.236, -0.24, -0.244, -0.248, -0.252, -0.256, -0.26, -0.264, -0.268, -0.272, -0.276, -0.28, -0.284, -0.288, -0.292, -0.296, -0.3, -0.304, -0.308, -0.312, -0.316, -0.32, -0.324, -0.328, -0.332, -0.336, -0.34, -0.34, -0.34, -0.34, -0.34, -0.34, -0.34, -0.34, -0.34, -0.34, -0.34, -0.34, -0.34]",None,None,['left'],[0.4388942909426987],[1.446998875006102],up,1.9949617499951273,None,70.48571133404039,70.4920914999675,70.75050195900258,70.74068087502383,70.74080341705121,70.75050195900258,,71.75113316706847,,71.74138066696469,1,1,,,70.75050195900258,71.75113316706847,,,,,,,,,,,,arnav,,A,2026-03-29_16h11.38.547,asymmetry_final_v2,2024.2.4,120,2026-03-29 16h11.49.915224 -0400,
10,10,0,1,1,baseline,34,3.5,0.3,1.0,-0.048,flat,curv_flat,0.0,0.0,0.3,rew,input_data/stims/Shape_3.50_1.00.png,input_data/stims/Shape_0.00_2.00.png,input_data/stims/Shape_4.00_2.00.png,1,1,-1.0,-1.0,1,up,2.24640104197897,None,up,2.0151355830021203,None,None,None,['right'],[0.46753174904733896],[0.7396100000478327],up,1.324166791047901,None,0,0,0,0,0,10,10,34,71.75113316706847,,,,,,,,,,,,,,,,,71.74229454202577,0.0008671660907566547,72.78425370901823,72.78430829197168,72.82580720901024,74.05780175002292,74.05257791699842,74.05287016707007,0.00029854103922843933,75.54485562501941,75.54616620903835,75.62087262503337,75.62087262503337,75.62087262503337,75.62087262503337,75.62087262503337,75.62087262503337,75.62087262503337,76.9538480839692,"[-0.048, -0.048, -0.048, -0.048, -0.048, -0.048, -0.048, -0.048, -0.048, -0.048, -0.048, -0.048, -0.048, -0.048, -0.048, -0.048, -0.048, -0.048, -0.048, -0.048, -0.048, -0.048, -0.048, -0.048, -0.048, -0.048, -0.048, -0.048, -0.048, -0.048, -0.048, -0.048, -0.048, -0.048, -0.048, -0.044, -0.04, -0.036, -0.032, -0.028, -0.024, -0.02, -0.016, -0.012, -0.008, -0.004, 0.0, 0.004, 0.008, 0.012, 0.016, 0.02, 0.024, 0.028, 0.032, 0.036, 0.04, 0.044, 0.048, 0.052, 0.056, 0.06, 0.064, 0.068, 0.072, 0.076, 0.08, 0.084, 0.088, 0.092, 0.096, 0.1, 0.104, 0.108, 0.112, 0.116, 0.12, 0.124, 0.128, 0.132, 0.136, 0.14, 0.144, 0.148, 0.152, 0.156, 0.16, 0.164, 0.168, 0.172, 0.176, 0.18, 0.184, 0.188, 0.192, 0.196, 0.2, 0.204, 0.208, 0.208, 0.208, 0.208, 0.208, 0.208, 0.208, 0.208, 0.208, 0.208, 0.208]",None,None,['right'],[0.46753174904733896],[0.7396100000478327],up,1.324166791047901,None,76.95533612498548,76.9673813340487,77.22608900000341,77.21876049996354,77.21889904199634,77.22608900000341,,78.22545224998612,,78.21870537498035,1,5,77.22608900000341,78.22545224998612,,,,,,,,,,,,,,arnav,,A,2026-03-29_16h11.38.547,asymmetry_final_v2,2024.2.4,120,2026-03-29 16h11.49.915224 -0400,
11,11,0,1,1,baseline,21,2.1,0.02,1.0,0.076,flat,flat_curv,0.0,0.0,-0.02,rew,input_data/stims/Shape_2.10_1.00.png,input_data/stims/Shape_4.00_2.00.png,input_data/stims/Shape_0.00_2.00.png,1,-1,1.0,-1.0,1,up,2.24640104197897,None,up,2.0151355830021203,None,None,None,['left'],[0.4965606239857152],[1.059336791979149],up,1.6927888330537826,None,0,0,0,0,0,11,11,21,78.22545224998612,,,,,,,,,,,,,,,,,78.21959300001618,0.0008750839624553919,79.21155479201116,79.21161012502853,79.25299704202916,80.35284283396322,80.34182716696523,80.34205504204147,0.000238916021771729,81.68404325004667,81.68531049997546,81.75090104201809,81.75090104201809,81.75090104201809,81.75090104201809,81.75090104201809,81.75090104201809,81.75090104201809,83.44880833406933,"[0.076, 0.076, 0.076, 0.076, 0.076, 0.076, 0.076, 0.076, 0.076, 0.076, 0.076, 0.076, 0.076, 0.076, 0.076, 0.076, 0.076, 0.076, 0.076, 0.076, 0.076, 0.076, 0.076, 0.076, 0.076, 0.076, 0.076, 0.076, 0.076, 0.076, 0.076, 0.076, 0.076, 0.076, 0.076, 0.076, 0.076, 0.076, 0.076, 0.076, 0.076, 0.076, 0.076, 0.076, 0.076, 0.076, 0.076, 0.076, 0.072, 0.068, 0.064, 0.06, 0.056, 0.052, 0.048, 0.044, 0.04, 0.036, 0.032, 0.028, 0.024, 0.02, 0.016, 0.012, 0.008, 0.004, 0.0, -0.004, -0.008, -0.012, -0.016, -0.02, -0.024, -0.028, -0.032, -0.036, -0.04, -0.044, -0.048, -0.052, -0.056, -0.06, -0.064, -0.068, -0.072, -0.076, -0.08, -0.084, -0.088, -0.092, -0.096, -0.1, -0.104, -0.108, -0.112, -0.116, -0.12, -0.124, -0.128, -0.132, -0.136, -0.14, -0.144, -0.148, -0.152, -0.156, -0.16, -0.164, -0.168, -0.172, -0.176, -0.18, -0.184, -0.188, -0.192, -0.196, -0.2, -0.204, -0.208, -0.212, -0.216, -0.22, -0.224, -0.228, -0.232, -0.232, -0.232, -0.232, -0.232, -0.232, -0.232, -0.232, -0.232, -0.232, -0.232, -0.232, -0.232]",None,None,['left'],[0.4965606239857152],[1.059336791979149],up,1.6927888330537826,None,83.44924633402843,83.4568897089921,83.70841449999716,83.70187895896379,83.70199541701004,83.70841449999716,,84.72412250004709,,84.71835087495856,1,5,83.70841449999716,84.72412250004709,,,,,,,,,,,,,,arnav,,A,2026-03-29_16h11.38.547,asymmetry_final_v2,2024.2.4,120,2026-03-29 16h11.49.915224 -0400,
12,12,0,1,1,baseline,24,2.5,0.1,3.0,0.356,flat,curv_flat,0.0,0.0,0.1,rew,input_data/stims/Shape_2.50_3.00.png,input_data/stims/Shape_0.00_2.00.png,input_data/stims/Shape_4.00_2.00.png,1,1,1.0,1.0,1,up,2.24640104197897,None,up,2.0151355830021203,None,None,None,['left'],[0.6655747910263017],[0.4797491249628365],up,1.224644040921703,None,0,0,0,0,0,12,12,24,84.72412250004709,,,,,,,,,,,,,,,,,84.71921374998055,0.0008510419866070151,85.76122874999419,85.76128179195803,85.80124383396469,86.86021375004202,86.85248858400155,86.85275045898743,0.0002667088992893696,88.29472033400089,88.29601329204161,88.36005174997263,88.36005174997263,88.36005174997263,88.36005174997263,88.36005174997263,88.36005174997263,88.36005174997263,89.58942445903085,"[0.356, 0.356, 0.356, 0.356, 0.356, 0.356, 0.356, 0.356, 0.356, 0.356, 0.356, 0.356, 0.356, 0.356, 0.356, 0.356, 0.356, 0.356, 0.356, 0.356, 0.356, 0.356, 0.356, 0.356, 0.356, 0.356, 0.356, 0.356, 0.356, 0.356, 0.356, 0.356, 0.356, 0.356, 0.356, 0.356, 0.356, 0.356, 0.356, 0.356, 0.356, 0.356, 0.356, 0.356, 0.356, 0.356, 0.356, 0.356, 0.356, 0.356, 0.356, 0.356, 0.356, 0.356, 0.356, 0.356, 0.356, 0.356, 0.356, 0.356, 0.356, 0.356, 0.352, 0.348, 0.344, 0.34, 0.336, 0.332, 0.328, 0.324, 0.32, 0.316, 0.312, 0.308, 0.304, 0.3, 0.296, 0.292, 0.288, 0.284, 0.28, 0.276, 0.272, 0.268, 0.264, 0.26, 0.256, 0.252, 0.248, 0.244, 0.24, 0.236, 0.232, 0.228, 0.224, 0.22, 0.216, 0.212, 0.212, 0.212, 0.212, 0.212, 0.212, 0.212, 0.212, 0.212, 0.212]",None,None,['left'],[0.6655747910263017],[0.4797491249628365],up,1.224644040921703,None,89.58976279199123,89.59595866699237,89.84192537504714,89.83524083404336,89.83533470903058,89.84192537504714,,90.85058233398013,,90.84204758401029,1,5,89.84192537504714,90.85058233398013,,,,,,,,,,,,,,arnav,,A,2026-03-29_16h11.38.547,asymmetry_final_v2,2024.2.4,120,2026-03-29 16h11.49.915224 -0400,
13,13,0,1,1,baseline,36,3.7,0.34,1.0,-0.028,flat,curv_flat,0.0,0.0,0.34,rew,input_data/stims/Shape_3.70_1.00.png,input_data/stims/Shape_0.00_2.00.png,input_data/stims/Shape_4.00_2.00.png,1,1,-1.0,-1.0,1,up,2.24640104197897,None,up,2.0151355830021203,None,None,None,['right'],[0.47517637501005083],[1.007576333009638],up,1.7124175410717726,None,0,0,0,0,0,13,13,36,90.85058233398013,,,,,,,,,,,,,,,,,90.84283908398356,0.0007749160286039114,91.73481399996672,91.73487225000281,91.77560758404434,92.7736611670116,92.76835820905399,92.76872883399483,0.0003796670353040099,94.06079650006723,94.06211962504312,94.12732479197439,94.12732479197439,94.12732479197439,94.12732479197439,94.12732479197439,94.12732479197439,94.12732479197439,95.85380129201803,"[-0.028, -0.028, -0.028, -0.028, -0.028, -0.028, -0.028, -0.028, -0.028, -0.028, -0.028, -0.028, -0.028, -0.028, -0.028, -0.028, -0.028, -0.028, -0.028, -0.028, -0.028, -0.028, -0.028, -0.028, -0.028, -0.028, -0.028, -0.028, -0.028, -0.028, -0.028, -0.028, -0.028, -0.028, -0.028, -0.028, -0.028, -0.028, -0.028, -0.024, -0.02, -0.016, -0.012, -0.008, -0.004, 0.0, 0.004, 0.008, 0.012, 0.016, 0.02, 0.024, 0.028, 0.032, 0.036, 0.04, 0.044, 0.048, 0.052, 0.056, 0.06, 0.064, 0.068, 0.072, 0.076, 0.08, 0.084, 0.088, 0.092, 0.096, 0.1, 0.104, 0.108, 0.112, 0.116, 0.12, 0.124, 0.128, 0.132, 0.136, 0.14, 0.144, 0.148, 0.152, 0.156, 0.16, 0.164, 0.168, 0.172, 0.176, 0.18, 0.184, 0.188, 0.192, 0.196, 0.2, 0.204, 0.208, 0.212, 0.216, 0.22, 0.224, 0.228, 0.232, 0.236, 0.24, 0.244, 0.248, 0.252, 0.256, 0.26, 0.264, 0.268, 0.272, 0.276, 0.28, 0.284, 0.288, 0.292, 0.296, 0.296, 0.296, 0.296, 0.296, 0.296, 0.296, 0.296, 0.296, 0.296, 0.296, 0.296, 0.296, 0.296, 0.296, 0.296, 0.296, 0.296, 0.296]",None,None,['right'],[0.47517637501005083],[1.007576333009638],up,1.7124175410717726,None,95.85455162497237,95.867594209034,96.13399212504737,96.12438799999654,96.12450954201631,96.13399212504737,,97.13479891698807,,97.12413908401504,1,5,96.13399212504737,97.13479891698807,,,,,,,,,,,,,,arnav,,A,2026-03-29_16h11.38.547,asymmetry_final_v2,2024.2.4,120,2026-03-29 16h11.49.915224 -0400,
14,14,0,1,1,baseline,5,0.5,-0.3,1.0,-0.124,curv,flat_curv,0.0,0.0,0.3,pen,input_data/stims/Shape_0.50_1.00.png,input_data/stims/Shape_4.00_2.00.png,input_data/stims/Shape_0.00_2.00.png,-1,-1,-1.0,-1.0,-1,up,2.24640104197897,None,up,2.0151355830021203,None,None,None,['right'],[0.5638235410442576],[1.483567624934949],up,2.1248987909639254,None,0,0,0,0,0,14,14,5,97.13479891698807,,,,,,,,,,,,,,,,,97.12501433398575,0.0008597919950261712,98.01695016701706,98.01699354196899,98.04889379197266,99.13383533398155,99.1274727920536,99.12776129203849,0.0003050409723073244,100.56979787501041,100.5711608340498,100.63389220903628,100.63389220903628,100.63389220903628,100.63389220903628,100.63389220903628,100.63389220903628,100.63389220903628,102.76324816700071,"[-0.124, -0.124, -0.124, -0.124, -0.124, -0.124, -0.124, -0.124, -0.124, -0.124, -0.124, -0.124, -0.124, -0.124, -0.124, -0.124, -0.124, -0.124, -0.124, -0.124, -0.124, -0.124, -0.124, -0.124, -0.124, -0.124, -0.124, -0.124, -0.124, -0.124, -0.124, -0.124, -0.124, -0.124, -0.124, -0.124, -0.124, -0.124, -0.124, -0.124, -0.124, -0.124, -0.124, -0.124, -0.124, -0.124, -0.124, -0.124, -0.124, -0.124, -0.124, -0.124, -0.124, -0.124, -0.124, -0.124, -0.124, -0.124, -0.12, -0.116, -0.112, -0.108, -0.104, -0.1, -0.096, -0.092, -0.088, -0.084, -0.08, -0.076, -0.072, -0.068, -0.064, -0.06, -0.056, -0.052, -0.048, -0.044, -0.04, -0.036, -0.032, -0.028, -0.024, -0.02, -0.016, -0.012, -0.008, -0.004, 0.0, 0.004, 0.008, 0.012, 0.016, 0.02, 0.024, 0.028, 0.032, 0.036, 0.04, 0.044, 0.048, 0.052, 0.056, 0.06, 0.064, 0.068, 0.072, 0.076, 0.08, 0.084, 0.088, 0.092, 0.096, 0.1, 0.104, 0.108, 0.112, 0.116, 0.12, 0.124, 0.128, 0.132, 0.136, 0.14, 0.144, 0.148, 0.152, 0.156, 0.16, 0.164, 0.168, 0.172, 0.176, 0.18, 0.184, 0.188, 0.192, 0.196, 0.2, 0.204, 0.208, 0.212, 0.216, 0.22, 0.224, 0.228, 0.232, 0.236, 0.24, 0.244, 0.248, 0.252, 0.256, 0.26, 0.264, 0.268, 0.272, 0.276, 0.28, 0.284, 0.288, 0.292, 0.296, 0.3, 0.304, 0.308, 0.312, 0.316, 0.32, 0.324, 0.328, 0.328, 0.328, 0.328, 0.328, 0.328, 0.328, 0.328]",None,None,['right'],[0.5638235410442576],[1.483567624934949],up,2.1248987909639254,None,102.76360470906366,102.77089008397888,103.02691937505733,103.01893562497571,103.01907599996775,103.02691937505733,,104.02612254198175,,104.0191549169831,1,1,,,103.02691937505733,104.02612254198175,,,,,,,,,,,,arnav,,A,2026-03-29_16h11.38.547,asymmetry_final_v2,2024.2.4,120,2026-03-29 16h11.49.915224 -0400,
15,15,0,1,1,baseline,2,0.3,-0.34,1.0,-0.228,curv,curv_flat,0.0,0.0,-0.34,pen,input_data/stims/Shape_0.30_1.00.png,input_data/stims/Shape_0.00_2.00.png,input_data/stims/Shape_4.00_2.00.png,-1,1,-1.0,-1.0,-1,up,2.24640104197897,None,up,2.0151355830021203,None,None,None,None,,,up,0.7960865420754999,None,0,0,0,0,0,15,15,2,104.02612254198175,,,,,,,,,,,,,,,,,104.02018750004936,0.0010154580231755972,105.11225162504707,105.11235700000543,105.1524878339842,106.15057991701178,106.14468245906755,106.14501379197463,0.0003320830874145031,107.6369480000576,107.63818320899736,107.71451037505176,107.71451037505176,107.71451037505176,107.71451037505176,107.71451037505176,107.71451037505176,107.71451037505176,108.53775345906615,"[-0.228, -0.228, -0.228, -0.228, -0.228, -0.228, -0.228, -0.228, -0.228, -0.228, -0.228, -0.228, -0.228, -0.228, -0.228, -0.228, -0.228, -0.228, -0.228, -0.228, -0.228, -0.228, -0.228, -0.228, -0.228, -0.228, -0.228, -0.228, -0.228, -0.228, -0.228, -0.228, -0.228, -0.228, -0.228, -0.228, -0.228, -0.228, -0.228, -0.228, -0.228, -0.228, -0.228, -0.228, -0.228, -0.228, -0.228, -0.228, -0.228, -0.228, -0.228, -0.228, -0.228, -0.228, -0.228, -0.228, -0.228, -0.228, -0.228, -0.228, -0.228, -0.228, -0.228, -0.228, -0.228, -0.228, -0.228, -0.228]",None,None,None,,,up,0.7960865420754999,None,108.53815433406271,108.55224420898594,108.83329062501434,108.8022136669606,108.82591245905496,108.83329062501434,108.83329062501434,109.83426287502516,109.83426287502516,109.8256289169658,0,-5,,,,,,,,,,,,,,,,arnav,,A,2026-03-29_16h11.38.547,asymmetry_final_v2,2024.2.4,120,2026-03-29 16h11.49.915224 -0400,
16,16,0,1,1,baseline,25,2.5,0.1,1.0,0.264,flat,flat_curv,0.0,0.0,-0.1,rew,input_data/stims/Shape_2.50_1.00.png,input_data/stims/Shape_4.00_2.00.png,input_data/stims/Shape_0.00_2.00.png,1,-1,1.0,-1.0,1,up,2.24640104197897,None,up,2.0151355830021203,None,None,None,['left'],[0.44229066697880626],[1.2714532080572098],up,1.8540059579536319,None,0,0,0,0,0,16,16,25,109.83426287502516,,,,,,,,,,,,,,,,,109.82657312497031,0.0009291250025853515,110.8184790420346,110.8185259590391,110.85181191703305,111.8507138750283,111.84355795907322,111.84386816702317,0.00031887495424598455,113.33591487503145,113.33732212497853,113.39763008407317,113.39763008407317,113.39763008407317,113.39763008407317,113.39763008407317,113.39763008407317,113.39763008407317,115.25953758403193,"[0.264, 0.264, 0.264, 0.264, 0.264, 0.264, 0.264, 0.264, 0.264, 0.264, 0.264, 0.264, 0.264, 0.264, 0.264, 0.264, 0.264, 0.264, 0.264, 0.264, 0.264, 0.264, 0.264, 0.264, 0.264, 0.264, 0.264, 0.264, 0.264, 0.264, 0.264, 0.264, 0.264, 0.264, 0.264, 0.264, 0.264, 0.264, 0.264, 0.264, 0.264, 0.264, 0.264, 0.264, 0.264, 0.264, 0.26, 0.256, 0.252, 0.248, 0.244, 0.24, 0.236, 0.232, 0.228, 0.224, 0.22, 0.216, 0.212, 0.208, 0.204, 0.2, 0.196, 0.192, 0.188, 0.184, 0.18, 0.176, 0.172, 0.168, 0.164, 0.16, 0.156, 0.152, 0.148, 0.144, 0.14, 0.136, 0.132, 0.128, 0.124, 0.12, 0.116, 0.112, 0.108, 0.104, 0.1, 0.096, 0.092, 0.088, 0.084, 0.08, 0.076, 0.072, 0.068, 0.064, 0.06, 0.056, 0.052, 0.048, 0.044, 0.04, 0.036, 0.032, 0.028, 0.024, 0.02, 0.016, 0.012, 0.008, 0.004, 0.0, -0.004, -0.008, -0.012, -0.016, -0.02, -0.024, -0.028, -0.032, -0.036, -0.04, -0.044, -0.048, -0.052, -0.056, -0.06, -0.064, -0.068, -0.072, -0.076, -0.08, -0.084, -0.088, -0.092, -0.096, -0.1, -0.104, -0.108, -0.112, -0.116, -0.12, -0.124, -0.128, -0.132, -0.136, -0.14, -0.144, -0.148, -0.152, -0.156, -0.156, -0.156, -0.156, -0.156, -0.156, -0.156, -0.156, -0.156, -0.156, -0.156, -0.156, -0.156, -0.156]",None,None,['left'],[0.44229066697880626],[1.2714532080572098],up,1.8540059579536319,None,115.25998966698535,115.26740474998951,115.51724104199093,115.50776199996471,115.50930454197805,115.51724104199093,,116.6081761670066,,116.60212312499061,1,5,115.51724104199093,116.6081761670066,,,,,,,,,,,,,,arnav,,A,2026-03-29_16h11.38.547,asymmetry_final_v2,2024.2.4,120,2026-03-29 16h11.49.915224 -0400,
17,17,0,1,1,baseline,26,2.7,0.14,3.0,0.072,flat,curv_flat,0.0,0.0,0.14,rew,input_data/stims/Shape_2.70_3.00.png,input_data/stims/Shape_0.00_2.00.png,input_data/stims/Shape_4.00_2.00.png,1,1,1.0,1.0,1,up,2.24640104197897,None,up,2.0151355830021203,None,None,None,['right'],[0.548437915975228],[0.17125604208558798],up,0.9847642909735441,None,0,0,0,0,0,17,17,26,116.6081761670066,,,,,,,,,,,,,,,,,116.60297837504186,0.0008251250255852938,117.69492250005715,117.69497666705865,117.72526687500067,118.7340867499588,118.72802204196341,118.72829291701782,0.0002803750103339553,120.07033000001684,120.07178012502845,120.13517679204233,120.13517679204233,120.13517679204233,120.13517679204233,120.13517679204233,120.13517679204233,120.13517679204233,121.13016175001394,"[0.072, 0.072, 0.072, 0.072, 0.072, 0.072, 0.072, 0.072, 0.072, 0.072, 0.072, 0.072, 0.072, 0.072, 0.072, 0.072, 0.072, 0.072, 0.072, 0.072, 0.072, 0.072, 0.072, 0.072, 0.072, 0.072, 0.072, 0.072, 0.072, 0.072, 0.072, 0.072, 0.072, 0.072, 0.072, 0.072, 0.072, 0.072, 0.072, 0.072, 0.072, 0.072, 0.072, 0.072, 0.072, 0.072, 0.072, 0.072, 0.072, 0.072, 0.072, 0.072, 0.072, 0.076, 0.08, 0.084, 0.088, 0.092, 0.096, 0.1, 0.104, 0.108, 0.112, 0.116, 0.12, 0.124, 0.124, 0.124, 0.124, 0.124, 0.124, 0.124, 0.124, 0.124, 0.124, 0.124, 0.124, 0.124, 0.124, 0.124, 0.124, 0.124, 0.124, 0.124, 0.124, 0.124, 0.124, 0.124, 0.124, 0.124, 0.124]",None,None,['right'],[0.548437915975228],[0.17125604208558798],up,0.9847642909735441,None,121.13052712497301,121.13807345903479,121.39234983397182,121.38521654205397,121.38533266703598,121.39234983397182,,122.39220766699873,,122.38549787504598,1,5,121.39234983397182,122.39220766699873,,,,,,,,,,,,,,arnav,,A,2026-03-29_16h11.38.547,asymmetry_final_v2,2024.2.4,120,2026-03-29 16h11.49.915224 -0400,
18,18,0,1,1,baseline,12,1.3,-0.14,1.0,-0.06,curv,curv_flat,0.0,0.0,-0.14,pen,input_data/stims/Shape_1.30_1.00.png,input_data/stims/Shape_0.00_2.00.png,input_data/stims/Shape_4.00_2.00.png,-1,1,-1.0,-1.0,-1,up,2.24640104197897,None,up,2.0151355830021203,None,None,None,['left'],[0.5595855420688167],[0.4313343749381602],up,1.1629391249734908,None,0,0,0,0,0,18,18,12,122.39220766699873,,,,,,,,,,,,,,,,,122.38637404202018,0.0008533749496564269,123.37835212505888,123.37840983399656,123.41052566701546,124.4746230840683,124.46898837503977,124.46927454206161,0.00029316695872694254,125.81125116697513,125.81251575006172,125.88029808399733,125.88029808399733,125.88029808399733,125.88029808399733,125.88029808399733,125.88029808399733,125.88029808399733,127.04971070901956,"[-0.06, -0.06, -0.06, -0.06, -0.06, -0.06, -0.06, -0.06, -0.06, -0.06, -0.06, -0.06, -0.06, -0.06, -0.06, -0.06, -0.06, -0.06, -0.06, -0.06, -0.06, -0.06, -0.06, -0.06, -0.06, -0.06, -0.06, -0.06, -0.06, -0.06, -0.06, -0.06, -0.06, -0.06, -0.06, -0.06, -0.06, -0.06, -0.06, -0.06, -0.06, -0.06, -0.06, -0.06, -0.06, -0.06, -0.06, -0.06, -0.06, -0.06, -0.06, -0.06, -0.06, -0.064, -0.068, -0.072, -0.076, -0.08, -0.084, -0.088, -0.092, -0.096, -0.1, -0.104, -0.108, -0.112, -0.116, -0.12, -0.124, -0.128, -0.132, -0.136, -0.14, -0.144, -0.148, -0.152, -0.156, -0.16, -0.164, -0.168, -0.172, -0.176, -0.18, -0.184, -0.188, -0.192, -0.196, -0.2, -0.204, -0.204, -0.204, -0.204, -0.204, -0.204, -0.204, -0.204, -0.204, -0.204, -0.204, -0.204, -0.204, -0.204, -0.204]",None,None,['left'],[0.5595855420688167],[0.4313343749381602],up,1.1629391249734908,None,127.05008700001054,127.05718250002246,127.3093722499907,127.30241741705686,127.30252224998549,127.3093722499907,,128.34240029205102,,128.33592966699507,1,1,,,127.3093722499907,128.34240029205102,,,,,,,,,,,,arnav,,A,2026-03-29_16h11.38.547,asymmetry_final_v2,2024.2.4,120,2026-03-29 16h11.49.915224 -0400,
19,19,0,1,1,baseline,32,3.3,0.26,1.0,-0.036,flat,curv_flat,0.0,0.0,0.26,rew,input_data/stims/Shape_3.30_1.00.png,input_data/stims/Shape_0.00_2.00.png,input_data/stims/Shape_4.00_2.00.png,1,1,-1.0,-1.0,1,up,2.24640104197897,None,up,2.0151355830021203,None,None,None,['right'],[0.4001193750882521],[0.7475538749713451],up,1.3390020000515506,None,0,0,0,0,0,19,19,32,128.34240029205102,,,,,,,,,,,,,,,,,128.33683879196178,0.0008902499685063958,129.32885883399285,129.32891325000674,129.36307058401871,130.4846881669946,130.47912791697308,130.47936150000896,0.0002377909841015935,131.92127537506167,131.9226095000049,131.98752204200719,131.98752204200719,131.98752204200719,131.98752204200719,131.98752204200719,131.98752204200719,131.98752204200719,133.33450712496415,"[-0.036, -0.036, -0.036, -0.036, -0.036, -0.036, -0.036, -0.036, -0.036, -0.036, -0.036, -0.036, -0.036, -0.036, -0.036, -0.036, -0.036, -0.036, -0.036, -0.036, -0.036, -0.036, -0.036, -0.036, -0.036, -0.036, -0.036, -0.036, -0.036, -0.036, -0.036, -0.036, -0.036, -0.036, -0.036, -0.036, -0.036, -0.032, -0.028, -0.024, -0.02, -0.016, -0.012, -0.008, -0.004, 0.0, 0.004, 0.008, 0.012, 0.016, 0.02, 0.024, 0.028, 0.032, 0.036, 0.04, 0.044, 0.048, 0.052, 0.056, 0.06, 0.064, 0.068, 0.072, 0.076, 0.08, 0.084, 0.088, 0.092, 0.096, 0.1, 0.104, 0.108, 0.112, 0.116, 0.12, 0.124, 0.128, 0.132, 0.136, 0.14, 0.144, 0.148, 0.152, 0.156, 0.16, 0.164, 0.168, 0.172, 0.176, 0.18, 0.184, 0.188, 0.192, 0.192, 0.192, 0.192, 0.192, 0.192, 0.192, 0.192, 0.192, 0.192, 0.192, 0.192, 0.192, 0.192, 0.192, 0.192, 0.192, 0.192]",None,None,['right'],[0.4001193750882521],[0.7475538749713451],up,1.3390020000515506,None,133.33491316705476,133.34200041706208,133.59308429202065,133.58594925003126,133.58606366696768,133.59308429202065,,134.59316175000276,,134.5864622920053,1,5,133.59308429202065,134.59316175000276,,,,,,,,,,,,,,arnav,,A,2026-03-29_16h11.38.547,asymmetry_final_v2,2024.2.4,120,2026-03-29 16h11.49.915224 -0400,
20,20,0,1,1,baseline,30,3.1,0.22,3.0,0.128,flat,curv_flat,0.0,0.0,0.22,rew,input_data/stims/Shape_3.10_3.00.png,input_data/stims/Shape_0.00_2.00.png,input_data/stims/Shape_4.00_2.00.png,1,1,1.0,1.0,1,up,2.24640104197897,None,up,2.0151355830021203,None,None,None,['left'],[0.5269413329660892],[0.06341795797925442],up,0.8151325830258429,None,0,0,0,0,0,20,20,30,134.59316175000276,,,,,,,,,,,,,,,,,134.5872944999719,0.0008177920244634151,135.4792063749628,135.4792570420541,135.51161658402998,136.50701062497683,136.50170550006442,136.50196237501223,0.00025658297818154097,137.89389983401634,137.89520145906135,137.9579308340326,137.9579308340326,137.9579308340326,137.9579308340326,137.9579308340326,137.9579308340326,137.9579308340326,138.78013195900712,"[0.128, 0.128, 0.128, 0.128, 0.128, 0.128, 0.128, 0.128, 0.128, 0.128, 0.128, 0.128, 0.128, 0.128, 0.128, 0.128, 0.128, 0.128, 0.128, 0.128, 0.128, 0.128, 0.128, 0.128, 0.128, 0.128, 0.128, 0.128, 0.128, 0.128, 0.128, 0.128, 0.128, 0.128, 0.128, 0.128, 0.128, 0.128, 0.128, 0.128, 0.128, 0.128, 0.128, 0.128, 0.128, 0.128, 0.128, 0.124, 0.12, 0.116, 0.112, 0.108, 0.108, 0.108, 0.108, 0.108, 0.108, 0.108, 0.108, 0.108, 0.108, 0.108, 0.108, 0.108, 0.108, 0.108, 0.108, 0.108, 0.108, 0.108, 0.108, 0.108, 0.108]",None,None,['left'],[0.5269413329660892],[0.06341795797925442],up,0.8151325830258429,None,138.7804910839768,138.7877760840347,139.04358262498863,139.03591454203706,139.03600741701666,139.04358262498863,,140.05780783400405,,140.05198437499348,1,5,139.04358262498863,140.05780783400405,,,,,,,,,,,,,,arnav,,A,2026-03-29_16h11.38.547,asymmetry_final_v2,2024.2.4,120,2026-03-29 16h11.49.915224 -0400,
21,21,0,1,1,baseline,22,2.3,0.06,1.0,0.232,flat,curv_flat,0.0,0.0,0.06,rew,input_data/stims/Shape_2.30_1.00.png,input_data/stims/Shape_0.00_2.00.png,input_data/stims/Shape_4.00_2.00.png,1,1,1.0,-1.0,1,up,2.24640104197897,None,up,2.0151355830021203,None,None,None,['left'],[0.4954381239367649],[0.35116404201835394],up,1.0319192489841953,None,0,0,0,0,0,21,21,22,140.05780783400405,,,,,,,,,,,,,,,,,140.05283554201014,0.0008400839287787676,140.99477900005877,140.9948306250153,141.0292126670247,142.11759999999776,142.11071904201526,142.11097695899662,0.0002691670088097453,143.6029731669696,143.6043310840614,143.65964779199567,143.65964779199567,143.65964779199567,143.65964779199567,143.65964779199567,143.65964779199567,143.65964779199567,144.69659079203848,"[0.232, 0.232, 0.232, 0.232, 0.232, 0.232, 0.232, 0.232, 0.232, 0.232, 0.232, 0.232, 0.232, 0.232, 0.232, 0.232, 0.232, 0.232, 0.232, 0.232, 0.232, 0.232, 0.232, 0.232, 0.232, 0.232, 0.232, 0.232, 0.232, 0.232, 0.232, 0.232, 0.232, 0.232, 0.232, 0.232, 0.232, 0.232, 0.232, 0.232, 0.232, 0.232, 0.232, 0.232, 0.232, 0.232, 0.232, 0.232, 0.232, 0.232, 0.232, 0.228, 0.224, 0.22, 0.216, 0.212, 0.208, 0.204, 0.2, 0.196, 0.192, 0.188, 0.184, 0.18, 0.176, 0.172, 0.168, 0.164, 0.16, 0.156, 0.152, 0.148, 0.144, 0.14, 0.136, 0.132, 0.128, 0.124, 0.12, 0.116, 0.112, 0.112, 0.112, 0.112, 0.112, 0.112, 0.112, 0.112, 0.112, 0.112, 0.112, 0.112, 0.112, 0.112, 0.112, 0.112, 0.112, 0.112, 0.112, 0.112]",None,None,['left'],[0.4954381239367649],[0.35116404201835394],up,1.0319192489841953,None,144.696989875054,144.70468233397696,144.9598102089949,144.952647792059,144.95277112501208,144.9598102089949,,145.95945554203354,,145.95255945902318,1,5,144.9598102089949,145.95945554203354,,,,,,,,,,,,,,arnav,,A,2026-03-29_16h11.38.547,asymmetry_final_v2,2024.2.4,120,2026-03-29 16h11.49.915224 -0400,
22,22,0,1,1,baseline,1,0.1,-0.38,1.0,-0.192,curv,flat_curv,0.0,0.0,0.38,pen,input_data/stims/Shape_0.10_1.00.png,input_data/stims/Shape_4.00_2.00.png,input_data/stims/Shape_0.00_2.00.png,-1,-1,-1.0,-1.0,-1,up,2.24640104197897,None,up,2.0151355830021203,None,None,None,['right'],[0.4993146249325946],[1.7360194160137326],up,2.3761757080210373,None,0,0,0,0,0,22,22,1,145.95945554203354,,,,,,,,,,,,,,,,,145.9536245840136,0.001039499999023974,146.94564020901453,146.9456952919718,146.98086008406244,148.1185488749761,148.10936820902862,148.10962687502615,0.0002691670088097453,149.40155766706448,149.40285312500782,149.46523612504825,149.46523612504825,149.46523612504825,149.46523612504825,149.46523612504825,149.46523612504825,149.46523612504825,151.84809158404823,"[-0.192, -0.192, -0.192, -0.192, -0.192, -0.192, -0.192, -0.192, -0.192, -0.192, -0.192, -0.192, -0.192, -0.192, -0.192, -0.192, -0.192, -0.192, -0.192, -0.192, -0.192, -0.192, -0.192, -0.192, -0.192, -0.192, -0.192, -0.192, -0.192, -0.192, -0.192, -0.192, -0.192, -0.192, -0.192, -0.192, -0.192, -0.192, -0.192, -0.192, -0.192, -0.192, -0.192, -0.192, -0.192, -0.192, -0.192, -0.192, -0.188, -0.184, -0.18, -0.176, -0.172, -0.168, -0.164, -0.16, -0.156, -0.152, -0.148, -0.144, -0.14, -0.136, -0.132, -0.128, -0.124, -0.12, -0.116, -0.112, -0.108, -0.104, -0.1, -0.096, -0.092, -0.088, -0.084, -0.08, -0.076, -0.072, -0.068, -0.064, -0.06, -0.056, -0.052, -0.048, -0.044, -0.04, -0.036, -0.032, -0.028, -0.024, -0.02, -0.016, -0.012, -0.008, -0.004, 0.0, 0.004, 0.008, 0.012, 0.016, 0.02, 0.024, 0.028, 0.032, 0.036, 0.04, 0.044, 0.048, 0.052, 0.056, 0.06, 0.064, 0.068, 0.072, 0.076, 0.08, 0.084, 0.088, 0.092, 0.096, 0.1, 0.104, 0.108, 0.112, 0.116, 0.12, 0.124, 0.128, 0.132, 0.136, 0.14, 0.144, 0.148, 0.152, 0.156, 0.16, 0.164, 0.168, 0.172, 0.176, 0.18, 0.184, 0.188, 0.192, 0.196, 0.2, 0.204, 0.208, 0.212, 0.216, 0.22, 0.224, 0.228, 0.232, 0.236, 0.24, 0.244, 0.248, 0.252, 0.256, 0.26, 0.264, 0.268, 0.272, 0.276, 0.28, 0.284, 0.288, 0.292, 0.296, 0.3, 0.304, 0.308, 0.312, 0.316, 0.32, 0.324, 0.328, 0.332, 0.336, 0.34, 0.344, 0.348, 0.352, 0.356, 0.36, 0.364, 0.368, 0.372, 0.376, 0.38, 0.38, 0.38, 0.38, 0.38, 0.38, 0.38, 0.38, 0.38, 0.38, 0.38, 0.38]",None,None,['right'],[0.4993146249325946],[1.7360194160137326],up,2.3761757080210373,None,151.8486109590158,151.85545137501322,152.10973037499934,152.10283487499692,152.10291837505065,152.10973037499934,,153.10912450007163,,153.10293616703711,1,1,,,152.10973037499934,153.10912450007163,,,,,,,,,,,,arnav,,A,2026-03-29_16h11.38.547,asymmetry_final_v2,2024.2.4,120,2026-03-29 16h11.49.915224 -0400,
23,23,0,1,1,baseline,38,3.9,0.38,3.0,-0.008,flat,curv_flat,0.0,0.0,0.38,rew,input_data/stims/Shape_3.90_3.00.png,input_data/stims/Shape_0.00_2.00.png,input_data/stims/Shape_4.00_2.00.png,1,1,-1.0,1.0,1,up,2.24640104197897,None,up,2.0151355830021203,None,None,None,['right'],[0.5108504159143195],[1.2111062500625849],up,1.956293874885887,None,0,0,0,0,0,23,23,38,153.10912450007163,,,,,,,,,,,,,,,,,153.10382433398627,0.0008680829778313637,154.14582116703968,154.1458710420411,154.17975287500303,155.37412795901764,155.36899683403317,155.36931429198012,0.0003310000756755471,156.76126200007275,156.76248320902232,156.81887620897032,156.81887620897032,156.81887620897032,156.81887620897032,156.81887620897032,156.81887620897032,156.81887620897032,158.77929237496573,"[-0.008, -0.008, -0.008, -0.008, -0.008, -0.008, -0.008, -0.008, -0.008, -0.008, -0.008, -0.008, -0.008, -0.008, -0.008, -0.008, -0.008, -0.008, -0.008, -0.008, -0.008, -0.008, -0.008, -0.008, -0.008, -0.008, -0.008, -0.008, -0.008, -0.008, -0.008, -0.008, -0.008, -0.008, -0.008, -0.008, -0.008, -0.008, -0.008, -0.008, -0.008, -0.008, -0.008, -0.008, -0.008, -0.004, 0.0, 0.004, 0.008, 0.012, 0.016, 0.02, 0.024, 0.028, 0.032, 0.036, 0.04, 0.044, 0.048, 0.052, 0.056, 0.06, 0.064, 0.068, 0.072, 0.076, 0.08, 0.084, 0.088, 0.092, 0.096, 0.1, 0.104, 0.108, 0.112, 0.116, 0.12, 0.124, 0.128, 0.132, 0.136, 0.14, 0.144, 0.148, 0.152, 0.156, 0.16, 0.164, 0.168, 0.172, 0.176, 0.18, 0.184, 0.188, 0.192, 0.196, 0.2, 0.204, 0.208, 0.212, 0.216, 0.22, 0.224, 0.228, 0.232, 0.236, 0.24, 0.244, 0.248, 0.252, 0.256, 0.26, 0.264, 0.268, 0.272, 0.276, 0.28, 0.284, 0.288, 0.292, 0.296, 0.3, 0.304, 0.308, 0.312, 0.316, 0.32, 0.324, 0.328, 0.332, 0.336, 0.34, 0.344, 0.348, 0.352, 0.356, 0.36, 0.364, 0.368, 0.372, 0.372, 0.372, 0.372, 0.372, 0.372, 0.372, 0.372, 0.372, 0.372, 0.372, 0.372, 0.372, 0.372, 0.372, 0.372, 0.372, 0.372, 0.372, 0.372, 0.372, 0.372]",None,None,['right'],[0.5108504159143195],[1.2111062500625849],up,1.956293874885887,None,158.77979541698005,158.78862683405168,159.04273270897102,159.03592812502757,159.03605191700626,159.04273270897102,,160.04203362506814,,160.0356865420472,1,5,159.04273270897102,160.04203362506814,,,,,,,,,,,,,,arnav,,A,2026-03-29_16h11.38.547,asymmetry_final_v2,2024.2.4,120,2026-03-29 16h11.49.915224 -0400,
24,24,0,1,1,baseline,31,3.1,0.22,3.0,-0.076,flat,flat_curv,0.0,0.0,-0.22,rew,input_data/stims/Shape_3.10_3.00.png,input_data/stims/Shape_4.00_2.00.png,input_data/stims/Shape_0.00_2.00.png,1,-1,-1.0,1.0,1,up,2.24640104197897,None,up,2.0151355830021203,None,None,None,['left'],[0.567469833069481],[0.6191318749915808],up,1.324207333032973,None,0,0,0,0,0,24,24,31,160.04203362506814,,,,,,,,,,,,,,,,,160.03664995904546,0.0009501250460743904,161.12857483397238,161.1286195840221,161.15832904202398,162.15738537500147,162.15207508404274,162.15244795905892,0.00037274998612701893,163.44437495898455,163.44569979200605,163.5126357920235,163.5126357920235,163.5126357920235,163.5126357920235,163.5126357920235,163.5126357920235,163.5126357920235,164.84659020905383,"[-0.076, -0.076, -0.076, -0.076, -0.076, -0.076, -0.076, -0.076, -0.076, -0.076, -0.076, -0.076, -0.076, -0.076, -0.076, -0.076, -0.076, -0.076, -0.076, -0.076, -0.076, -0.076, -0.076, -0.076, -0.076, -0.076, -0.076, -0.076, -0.076, -0.076, -0.076, -0.076, -0.076, -0.076, -0.076, -0.076, -0.076, -0.076, -0.076, -0.076, -0.076, -0.076, -0.076, -0.076, -0.076, -0.076, -0.076, -0.076, -0.076, -0.08, -0.084, -0.088, -0.092, -0.096, -0.1, -0.104, -0.108, -0.112, -0.116, -0.12, -0.124, -0.128, -0.132, -0.136, -0.14, -0.144, -0.148, -0.152, -0.156, -0.16, -0.164, -0.168, -0.172, -0.176, -0.18, -0.184, -0.188, -0.192, -0.196, -0.2, -0.204, -0.208, -0.212, -0.216, -0.22, -0.224, -0.228, -0.232, -0.236, -0.24, -0.244, -0.248, -0.252, -0.256, -0.26, -0.264, -0.268, -0.272, -0.276, -0.28, -0.28, -0.28, -0.28, -0.28, -0.28, -0.28, -0.28, -0.28, -0.28, -0.28, -0.28, -0.28, -0.28, -0.28, -0.28]",None,None,['left'],[0.567469833069481],[0.6191318749915808],up,1.324207333032973,None,164.84699120896403,164.85444812499918,165.1096417499939,165.10280570900068,165.1029107089853,165.1096417499939,,166.12538199999835,,166.11928250000346,1,5,165.1096417499939,166.12538199999835,,,,,,,,,,,,,,arnav,,A,2026-03-29_16h11.38.547,asymmetry_final_v2,2024.2.4,120,2026-03-29 16h11.49.915224 -0400,
25,25,0,1,1,baseline,37,3.7,0.34,1.0,0.164,flat,flat_curv,0.0,0.0,-0.34,rew,input_data/stims/Shape_3.70_1.00.png,input_data/stims/Shape_4.00_2.00.png,input_data/stims/Shape_0.00_2.00.png,1,-1,1.0,-1.0,1,up,2.24640104197897,None,up,2.0151355830021203,None,None,None,['left'],[0.46771416696719825],[1.5152414999902248],up,2.3160940000088885,None,0,0,0,0,0,25,25,37,166.12538199999835,,,,,,,,,,,,,,,,,166.12020354205742,0.0009042080491781235,167.21218174998648,167.2122347090626,167.2490407919977,168.3747205840191,168.3691033340292,168.36935995903332,0.00027199997566640377,169.811375334044,169.8126801670296,169.86896666698158,169.86896666698158,169.86896666698158,169.86896666698158,169.86896666698158,169.86896666698158,169.86896666698158,172.19706033403054,"[0.164, 0.164, 0.164, 0.164, 0.164, 0.164, 0.164, 0.164, 0.164, 0.164, 0.164, 0.164, 0.164, 0.164, 0.164, 0.164, 0.164, 0.164, 0.164, 0.164, 0.164, 0.164, 0.164, 0.164, 0.164, 0.164, 0.164, 0.164, 0.164, 0.164, 0.164, 0.164, 0.164, 0.164, 0.164, 0.164, 0.164, 0.164, 0.164, 0.164, 0.164, 0.164, 0.164, 0.164, 0.16, 0.156, 0.152, 0.148, 0.144, 0.14, 0.136, 0.132, 0.128, 0.124, 0.12, 0.116, 0.112, 0.108, 0.104, 0.1, 0.096, 0.092, 0.088, 0.084, 0.08, 0.076, 0.072, 0.068, 0.064, 0.06, 0.056, 0.052, 0.048, 0.044, 0.04, 0.036, 0.032, 0.028, 0.024, 0.02, 0.016, 0.012, 0.008, 0.004, 0.0, -0.004, -0.008, -0.012, -0.016, -0.02, -0.024, -0.028, -0.032, -0.036, -0.04, -0.044, -0.048, -0.052, -0.056, -0.06, -0.064, -0.068, -0.072, -0.076, -0.08, -0.084, -0.088, -0.092, -0.096, -0.1, -0.104, -0.108, -0.112, -0.116, -0.12, -0.124, -0.128, -0.132, -0.136, -0.14, -0.144, -0.148, -0.152, -0.156, -0.16, -0.164, -0.168, -0.172, -0.176, -0.18, -0.184, -0.188, -0.192, -0.196, -0.2, -0.204, -0.208, -0.212, -0.216, -0.22, -0.224, -0.228, -0.232, -0.236, -0.24, -0.244, -0.248, -0.252, -0.256, -0.26, -0.264, -0.268, -0.272, -0.276, -0.28, -0.284, -0.288, -0.292, -0.296, -0.3, -0.304, -0.308, -0.312, -0.316, -0.32, -0.324, -0.328, -0.332, -0.336, -0.336, -0.336, -0.336, -0.336, -0.336, -0.336, -0.336, -0.336, -0.336, -0.336, -0.336, -0.336, -0.336, -0.336, -0.336, -0.336, -0.336, -0.336, -0.336, -0.336, -0.336, -0.336, -0.336]",None,None,['left'],[0.46771416696719825],[1.5152414999902248],up,2.3160940000088885,None,172.19769204198383,172.2072232089704,172.4581476249732,172.45228954206686,172.45236454205588,172.4581476249732,,173.4934010420693,,173.486368709011,1,5,172.4581476249732,173.4934010420693,,,,,,,,,,,,,,arnav,,A,2026-03-29_16h11.38.547,asymmetry_final_v2,2024.2.4,120,2026-03-29 16h11.49.915224 -0400,
26,26,0,1,1,baseline,7,0.7,-0.26,3.0,0.064,curv,flat_curv,0.0,0.0,0.26,pen,input_data/stims/Shape_0.70_3.00.png,input_data/stims/Shape_4.00_2.00.png,input_data/stims/Shape_0.00_2.00.png,-1,-1,1.0,1.0,-1,up,2.24640104197897,None,up,2.0151355830021203,None,None,None,['right'],[0.6341595828998834],[0.43545116705354303],up,1.2599570829188451,None,0,0,0,0,0,26,26,7,173.4934010420693,,,,,,,,,,,,,,,,,173.48739187500905,0.000994957983493805,174.47938820905983,174.47942958399653,174.51045179204084,175.5077941250056,175.50244824995752,175.50279433396645,0.00035962508991360664,176.79477300005965,176.79608437500428,176.85572345904075,176.85572345904075,176.85572345904075,176.85572345904075,176.85572345904075,176.85572345904075,176.85572345904075,178.138622791972,"[0.064, 0.064, 0.064, 0.064, 0.064, 0.064, 0.064, 0.064, 0.064, 0.064, 0.064, 0.064, 0.064, 0.064, 0.064, 0.064, 0.064, 0.064, 0.064, 0.064, 0.064, 0.064, 0.064, 0.064, 0.064, 0.064, 0.064, 0.064, 0.064, 0.064, 0.064, 0.064, 0.064, 0.064, 0.064, 0.064, 0.064, 0.064, 0.064, 0.064, 0.064, 0.064, 0.064, 0.064, 0.064, 0.064, 0.064, 0.064, 0.064, 0.064, 0.064, 0.064, 0.064, 0.064, 0.064, 0.064, 0.064, 0.064, 0.068, 0.072, 0.076, 0.08, 0.084, 0.088, 0.092, 0.096, 0.1, 0.104, 0.108, 0.112, 0.116, 0.12, 0.124, 0.128, 0.132, 0.136, 0.14, 0.144, 0.148, 0.152, 0.156, 0.16, 0.164, 0.168, 0.172, 0.176, 0.18, 0.184, 0.188, 0.188, 0.188, 0.188, 0.188, 0.188, 0.188, 0.188, 0.188, 0.188, 0.188, 0.188, 0.188, 0.188, 0.188, 0.188, 0.188, 0.188, 0.188]",None,None,['right'],[0.6341595828998834],[0.43545116705354303],up,1.2599570829188451,None,178.1391434170073,178.1521509999875,178.40233408403583,178.39258524996694,178.3926729169907,178.40233408403583,,179.40213725005742,,179.3918689590646,1,1,,,178.40233408403583,179.40213725005742,,,,,,,,,,,,arnav,,A,2026-03-29_16h11.38.547,asymmetry_final_v2,2024.2.4,120,2026-03-29 16h11.49.915224 -0400,
27,27,0,1,1,baseline,19,1.9,-0.02,3.0,0.316,curv,flat_curv,0.0,0.0,0.02,pen,input_data/stims/Shape_1.90_3.00.png,input_data/stims/Shape_4.00_2.00.png,input_data/stims/Shape_0.00_2.00.png,-1,-1,1.0,1.0,-1,up,2.24640104197897,None,up,2.0151355830021203,None,None,None,['left'],[0.42726387397851795],[0.7793985840398818],up,1.33552633295767,None,0,0,0,0,0,27,27,19,179.40213725005742,,,,,,,,,,,,,,,,,179.3927411249606,0.0008575409883633256,180.48471254203469,180.4847657920327,180.51597175002098,181.56827158399392,181.55985308403615,181.56015575001948,0.0003049579681828618,182.8522101669805,182.85385516704991,182.9139592089923,182.9139592089923,182.9139592089923,182.9139592089923,182.9139592089923,182.9139592089923,182.9139592089923,184.25376687501557,"[0.316, 0.316, 0.316, 0.316, 0.316, 0.316, 0.316, 0.316, 0.316, 0.316, 0.316, 0.316, 0.316, 0.316, 0.316, 0.316, 0.316, 0.316, 0.316, 0.316, 0.316, 0.316, 0.316, 0.316, 0.316, 0.316, 0.316, 0.316, 0.316, 0.316, 0.316, 0.316, 0.316, 0.316, 0.316, 0.316, 0.316, 0.316, 0.316, 0.316, 0.316, 0.316, 0.316, 0.312, 0.308, 0.304, 0.3, 0.296, 0.292, 0.288, 0.284, 0.28, 0.276, 0.272, 0.268, 0.264, 0.26, 0.256, 0.252, 0.248, 0.244, 0.24, 0.236, 0.232, 0.228, 0.224, 0.22, 0.216, 0.212, 0.208, 0.204, 0.2, 0.196, 0.192, 0.188, 0.184, 0.18, 0.176, 0.172, 0.168, 0.164, 0.16, 0.156, 0.152, 0.148, 0.144, 0.14, 0.136, 0.132, 0.128, 0.124, 0.12, 0.116, 0.112, 0.108, 0.104, 0.1, 0.096, 0.092, 0.088, 0.084, 0.08, 0.076, 0.076, 0.076, 0.076, 0.076, 0.076, 0.076, 0.076, 0.076, 0.076, 0.076, 0.076, 0.076, 0.076]",None,None,['left'],[0.42726387397851795],[0.7793985840398818],up,1.33552633295767,None,184.25417204201221,184.261282667052,184.50951466697734,184.50247120903805,184.50258720899,184.50951466697734,,185.52570554206613,,185.51946383400355,1,1,,,184.50951466697734,185.52570554206613,,,,,,,,,,,,arnav,,A,2026-03-29_16h11.38.547,asymmetry_final_v2,2024.2.4,120,2026-03-29 16h11.49.915224 -0400,
28,28,0,1,1,baseline,8,0.9,-0.22,3.0,0.148,curv,curv_flat,0.0,0.0,-0.22,pen,input_data/stims/Shape_0.90_3.00.png,input_data/stims/Shape_0.00_2.00.png,input_data/stims/Shape_4.00_2.00.png,-1,1,1.0,1.0,-1,up,2.24640104197897,None,up,2.0151355830021203,None,None,None,['left'],[0.4741041249362752],[0.6278131670551375],up,1.2541105420095846,None,0,0,0,0,0,28,28,8,185.52570554206613,,,,,,,,,,,,,,,,,185.52049820905086,0.0010115409968420863,186.41251954203472,186.41256870899815,186.44435362506192,187.55261166696437,187.54524291702546,187.5454590000445,0.0002251670230180025,188.83745179197285,188.83874741697218,188.89837037504185,188.89837037504185,188.89837037504185,188.89837037504185,188.89837037504185,188.89837037504185,188.89837037504185,190.1619799589971,"[0.148, 0.148, 0.148, 0.148, 0.148, 0.148, 0.148, 0.148, 0.148, 0.148, 0.148, 0.148, 0.148, 0.148, 0.148, 0.148, 0.148, 0.148, 0.148, 0.148, 0.148, 0.148, 0.148, 0.148, 0.148, 0.148, 0.148, 0.148, 0.148, 0.148, 0.148, 0.148, 0.148, 0.148, 0.148, 0.148, 0.148, 0.148, 0.148, 0.148, 0.148, 0.144, 0.14, 0.136, 0.132, 0.128, 0.124, 0.12, 0.116, 0.112, 0.108, 0.104, 0.1, 0.096, 0.092, 0.088, 0.084, 0.08, 0.076, 0.072, 0.068, 0.064, 0.06, 0.056, 0.052, 0.048, 0.044, 0.04, 0.036, 0.032, 0.028, 0.024, 0.02, 0.016, 0.012, 0.008, 0.004, 0.0, -0.004, -0.008, -0.012, -0.016, -0.02, -0.024, -0.028, -0.032, -0.036, -0.04, -0.044, -0.044, -0.044, -0.044, -0.044, -0.044, -0.044, -0.044, -0.044, -0.044, -0.044, -0.044, -0.044, -0.044, -0.044, -0.044, -0.044, -0.044, -0.044]",None,None,['left'],[0.4741041249362752],[0.6278131670551375],up,1.2541105420095846,None,190.16232791705988,190.1850227500545,190.44360291701742,190.43623408395797,190.43636179203168,190.44360291701742,,191.48578537499998,,191.4746057089651,1,1,,,190.44360291701742,191.48578537499998,,,,,,,,,,,,arnav,,A,2026-03-29_16h11.38.547,asymmetry_final_v2,2024.2.4,120,2026-03-29 16h11.49.915224 -0400,
29,29,0,1,1,baseline,27,2.7,0.14,3.0,-0.324,flat,flat_curv,0.0,0.0,-0.14,rew,input_data/stims/Shape_2.70_3.00.png,input_data/stims/Shape_4.00_2.00.png,input_data/stims/Shape_0.00_2.00.png,1,-1,-1.0,1.0,1,up,2.24640104197897,None,up,2.0151355830021203,None,None,None,['right'],[0.6990482080727816],[0.33947183401323855],up,1.1953285000054166,None,0,0,0,0,0,29,29,27,191.48578537499998,,,,,,,,,,,,,,,,,191.47507229202893,0.0004542499082162976,192.56694875005633,192.5670011669863,192.60521666705608,193.60097366699483,193.59593958396,193.59621337498538,0.000282666995190084,195.0882650000276,195.08955649996642,195.15943329199217,195.15943329199217,195.15943329199217,195.15943329199217,195.15943329199217,195.15943329199217,195.15943329199217,196.35960845905356,"[-0.324, -0.324, -0.324, -0.324, -0.324, -0.324, -0.324, -0.324, -0.324, -0.324, -0.324, -0.324, -0.324, -0.324, -0.324, -0.324, -0.324, -0.324, -0.324, -0.324, -0.324, -0.324, -0.324, -0.324, -0.324, -0.324, -0.324, -0.324, -0.324, -0.324, -0.324, -0.324, -0.324, -0.324, -0.324, -0.324, -0.324, -0.324, -0.324, -0.324, -0.324, -0.324, -0.324, -0.324, -0.324, -0.324, -0.324, -0.324, -0.324, -0.324, -0.324, -0.324, -0.324, -0.324, -0.324, -0.324, -0.324, -0.324, -0.324, -0.324, -0.32, -0.316, -0.312, -0.308, -0.304, -0.3, -0.296, -0.292, -0.288, -0.284, -0.28, -0.276, -0.272, -0.268, -0.264, -0.26, -0.256, -0.252, -0.248, -0.244, -0.24, -0.24, -0.24, -0.24, -0.24, -0.24, -0.24, -0.24, -0.24, -0.24, -0.24, -0.24, -0.24]",None,None,['right'],[0.6990482080727816],[0.33947183401323855],up,1.1953285000054166,None,196.360092042014,196.36832079198211,196.61903045896906,196.6071605840698,196.6072537919972,196.61903045896906,,197.6181032920722,,197.60953150002751,1,5,196.61903045896906,197.6181032920722,,,,,,,,,,,,,,arnav,,A,2026-03-29_16h11.38.547,asymmetry_final_v2,2024.2.4,120,2026-03-29 16h11.49.915224 -0400,
30,30,0,1,1,baseline,9,0.9,-0.22,1.0,0.092,curv,flat_curv,0.0,0.0,0.22,pen,input_data/stims/Shape_0.90_1.00.png,input_data/stims/Shape_4.00_2.00.png,input_data/stims/Shape_0.00_2.00.png,-1,-1,1.0,-1.0,-1,up,2.24640104197897,None,up,2.0151355830021203,None,None,None,"['right', 'right']","[0.625712167005986, 0.9278864999068901]","[0.20734149997588247, 0.44811016705352813]",up,1.6854691669577733,None,0,0,0,0,0,30,30,9,197.6181032920722,,,,,,,,,,,,,,,,,197.61054616700858,0.001004458055831492,198.5025086250389,198.5025664169807,198.53506733407266,199.53480712499004,199.52740841696505,199.52772066707257,0.0003314589848741889,200.81970412505325,200.82129995897412,200.88097633398138,200.88097633398138,200.88097633398138,200.88097633398138,200.88097633398138,200.88097633398138,200.88097633398138,202.58862129203044,"[0.092, 0.092, 0.092, 0.092, 0.092, 0.092, 0.092, 0.092, 0.092, 0.092, 0.092, 0.092, 0.092, 0.092, 0.092, 0.092, 0.092, 0.092, 0.092, 0.092, 0.092, 0.092, 0.092, 0.092, 0.092, 0.092, 0.092, 0.092, 0.092, 0.092, 0.092, 0.092, 0.092, 0.092, 0.092, 0.092, 0.092, 0.092, 0.092, 0.092, 0.092, 0.092, 0.092, 0.092, 0.092, 0.092, 0.092, 0.092, 0.092, 0.092, 0.092, 0.092, 0.092, 0.092, 0.092, 0.092, 0.092, 0.092, 0.092, 0.092, 0.096, 0.1, 0.104, 0.108, 0.112, 0.116, 0.12, 0.124, 0.128, 0.132, 0.136, 0.14, 0.144, 0.148, 0.152, 0.156, 0.16, 0.164, 0.164, 0.164, 0.164, 0.164, 0.164, 0.164, 0.164, 0.164, 0.164, 0.168, 0.172, 0.176, 0.18, 0.184, 0.188, 0.192, 0.196, 0.2, 0.204, 0.208, 0.212, 0.216, 0.22, 0.224, 0.228, 0.232, 0.236, 0.24, 0.244, 0.248, 0.252, 0.256, 0.26, 0.264, 0.268, 0.272, 0.276, 0.28, 0.284, 0.288, 0.292, 0.296, 0.3, 0.304, 0.308, 0.312, 0.316, 0.32, 0.32, 0.32, 0.32, 0.32, 0.32, 0.32, 0.32, 0.32, 0.32, 0.32, 0.32, 0.32, 0.32, 0.32, 0.32, 0.32, 0.32, 0.32, 0.32, 0.32, 0.32, 0.32, 0.32, 0.32, 0.32, 0.32, 0.32]",None,None,"['right', 'right']","[0.625712167005986, 0.9278864999068901]","[0.20734149997588247, 0.44811016705352813]",up,1.6854691669577733,None,202.58917420904618,202.60290941700805,202.86087362503167,202.85331829206552,202.8534585420275,202.86087362503167,,203.87430525000673,,203.86873591702897,1,1,,,202.86087362503167,203.87430525000673,,,,,,,,,,,,arnav,,A,2026-03-29_16h11.38.547,asymmetry_final_v2,2024.2.4,120,2026-03-29 16h11.49.915224 -0400,
31,31,0,1,1,baseline,6,0.7,-0.26,3.0,0.124,curv,curv_flat,0.0,0.0,-0.26,pen,input_data/stims/Shape_0.70_3.00.png,input_data/stims/Shape_0.00_2.00.png,input_data/stims/Shape_4.00_2.00.png,-1,1,1.0,1.0,-1,up,2.24640104197897,None,up,2.0151355830021203,None,None,None,"['left', 'left']","[0.47080949996598065, 1.8730366659583524]","[1.0192820410011336, 0.0800793340895325]",up,2.112251083017327,None,0,0,0,0,0,31,31,6,203.87430525000673,,,,,,,,,,,,,,,,,203.86954550002702,0.0008049580501392484,204.76151550002396,204.76157041697297,204.79778129199985,205.80793820903637,205.80258329201024,205.80294687498827,0.00037670903839170933,207.1449038750725,207.14626149996184,207.2085315840086,207.2085315840086,207.2085315840086,207.2085315840086,207.2085315840086,207.2085315840086,207.2085315840086,209.33930866699666,"[0.124, 0.124, 0.124, 0.124, 0.124, 0.124, 0.124, 0.124, 0.124, 0.124, 0.124, 0.124, 0.124, 0.124, 0.124, 0.124, 0.124, 0.124, 0.124, 0.124, 0.124, 0.124, 0.124, 0.124, 0.124, 0.124, 0.124, 0.124, 0.124, 0.124, 0.124, 0.124, 0.124, 0.124, 0.124, 0.124, 0.124, 0.124, 0.124, 0.124, 0.124, 0.124, 0.124, 0.124, 0.124, 0.12, 0.116, 0.112, 0.108, 0.104, 0.1, 0.096, 0.092, 0.088, 0.084, 0.08, 0.076, 0.072, 0.068, 0.064, 0.06, 0.056, 0.052, 0.048, 0.044, 0.04, 0.036, 0.032, 0.028, 0.024, 0.02, 0.016, 0.012, 0.008, 0.004, 0.0, -0.004, -0.008, -0.012, -0.016, -0.02, -0.024, -0.028, -0.032, -0.036, -0.04, -0.044, -0.048, -0.052, -0.056, -0.06, -0.064, -0.068, -0.072, -0.076, -0.08, -0.084, -0.088, -0.092, -0.096, -0.1, -0.104, -0.108, -0.112, -0.116, -0.12, -0.124, -0.128, -0.132, -0.136, -0.14, -0.144, -0.148, -0.152, -0.156, -0.16, -0.164, -0.168, -0.172, -0.176, -0.18, -0.184, -0.188, -0.192, -0.196, -0.2, -0.204, -0.208, -0.212, -0.212, -0.212, -0.212, -0.212, -0.212, -0.212, -0.212, -0.212, -0.212, -0.212, -0.212, -0.212, -0.212, -0.212, -0.212, -0.212, -0.212, -0.212, -0.212, -0.212, -0.212, -0.212, -0.212, -0.212, -0.212, -0.212, -0.212, -0.212, -0.212, -0.212, -0.212, -0.212, -0.212, -0.212, -0.216, -0.22, -0.224, -0.228, -0.228, -0.228, -0.228, -0.228, -0.228, -0.228, -0.228, -0.228, -0.228, -0.228, -0.228]",None,None,"['left', 'left']","[0.47080949996598065, 1.8730366659583524]","[1.0192820410011336, 0.0800793340895325]",up,2.112251083017327,None,209.3399315000279,209.34645770897623,209.59170512505807,209.58605370903388,209.58614554197993,209.59170512505807,,210.72006229206454,,210.70389100001194,1,1,,,209.59170512505807,210.72006229206454,,,,,,,,,,,,arnav,,A,2026-03-29_16h11.38.547,asymmetry_final_v2,2024.2.4,120,2026-03-29 16h11.49.915224 -0400,
32,32,0,1,1,baseline,3,0.3,-0.34,3.0,-0.044,curv,flat_curv,0.0,0.0,0.34,pen,input_data/stims/Shape_0.30_3.00.png,input_data/stims/Shape_4.00_2.00.png,input_data/stims/Shape_0.00_2.00.png,-1,-1,-1.0,1.0,-1,up,2.24640104197897,None,up,2.0151355830021203,None,None,None,['right'],[0.4962340409401804],[0.943334584007971],up,1.6654504159232602,None,0,0,0,0,0,32,32,3,210.72006229206454,,,,,,,,,,,,,,,,,210.70483566704206,0.0009297920623794198,211.74684470903594,211.74692666705232,211.7959073750535,212.79304720903747,212.78768883401062,212.78801445895806,0.0003338330425322056,214.28004279197194,214.28162550006527,214.3823113340186,214.3823113340186,214.3823113340186,214.3823113340186,214.3823113340186,214.3823113340186,214.3823113340186,216.05478999996558,"[-0.044, -0.044, -0.044, -0.044, -0.044, -0.044, -0.044, -0.044, -0.044, -0.044, -0.044, -0.044, -0.044, -0.044, -0.044, -0.044, -0.044, -0.044, -0.044, -0.044, -0.044, -0.044, -0.044, -0.044, -0.044, -0.044, -0.044, -0.044, -0.044, -0.044, -0.044, -0.044, -0.044, -0.044, -0.044, -0.044, -0.044, -0.044, -0.044, -0.044, -0.044, -0.044, -0.044, -0.044, -0.044, -0.044, -0.044, -0.044, -0.04, -0.036, -0.032, -0.028, -0.024, -0.02, -0.016, -0.012, -0.008, -0.004, 0.0, 0.004, 0.008, 0.012, 0.016, 0.02, 0.024, 0.028, 0.032, 0.036, 0.04, 0.044, 0.048, 0.052, 0.056, 0.06, 0.064, 0.068, 0.072, 0.076, 0.08, 0.084, 0.088, 0.092, 0.096, 0.1, 0.104, 0.108, 0.112, 0.116, 0.12, 0.124, 0.128, 0.132, 0.136, 0.14, 0.144, 0.148, 0.152, 0.156, 0.16, 0.164, 0.168, 0.172, 0.176, 0.18, 0.184, 0.188, 0.192, 0.196, 0.2, 0.204, 0.208, 0.212, 0.216, 0.22, 0.224, 0.228, 0.232, 0.236, 0.24, 0.244, 0.248, 0.252, 0.256, 0.26, 0.264, 0.268, 0.272, 0.276, 0.28, 0.284, 0.288, 0.288, 0.288, 0.288, 0.288, 0.288, 0.288, 0.288, 0.288, 0.288, 0.288, 0.288, 0.288, 0.288, 0.288, 0.288, 0.288, 0.288, 0.288, 0.288, 0.288]",None,None,['right'],[0.4962340409401804],[0.943334584007971],up,1.6654504159232602,None,216.0554993340047,216.06845725001767,216.32748195901513,216.31991133396514,216.3200605000602,216.32748195901513,,217.32567370904144,,217.31925383396447,1,1,,,216.32748195901513,217.32567370904144,,,,,,,,,,,,arnav,,A,2026-03-29_16h11.38.547,asymmetry_final_v2,2024.2.4,120,2026-03-29 16h11.49.915224 -0400,
33,33,0,1,1,baseline,39,3.9,0.38,3.0,0.024,flat,flat_curv,0.0,0.0,-0.38,rew,input_data/stims/Shape_3.90_3.00.png,input_data/stims/Shape_4.00_2.00.png,input_data/stims/Shape_0.00_2.00.png,1,-1,1.0,1.0,1,up,2.24640104197897,None,up,2.0151355830021203,None,None,None,"['left', 'left', 'left', 'left']","[0.4179095000727102, 1.9183603330748156, 2.1399117910768837, 2.32503304106649]","[1.1796245409641415, 0.08822937496006489, 0.06362158397678286, 0.07598887500353158]",up,2.6454999580746517,None,0,0,0,0,0,33,33,39,217.32567370904144,,,,,,,,,,,,,,,,,217.32013487501536,0.0008639580337330699,218.2620483339997,218.26210558402818,218.29801345895976,219.30172958399635,219.2951076249592,219.2954166670097,0.0003179579507559538,220.7374310840387,220.73874083405826,220.80240487505216,220.80240487505216,220.80240487505216,220.80240487505216,220.80240487505216,220.80240487505216,220.80240487505216,223.45656600000802,"[0.024, 0.024, 0.024, 0.024, 0.024, 0.024, 0.024, 0.024, 0.024, 0.024, 0.024, 0.024, 0.024, 0.024, 0.024, 0.024, 0.024, 0.024, 0.024, 0.024, 0.024, 0.024, 0.024, 0.024, 0.024, 0.024, 0.024, 0.024, 0.024, 0.024, 0.024, 0.024, 0.024, 0.024, 0.024, 0.024, 0.024, 0.024, 0.02, 0.016, 0.012, 0.008, 0.004, 0.0, -0.004, -0.008, -0.012, -0.016, -0.02, -0.024, -0.028, -0.032, -0.036, -0.04, -0.044, -0.048, -0.052, -0.056, -0.06, -0.064, -0.068, -0.072, -0.076, -0.08, -0.084, -0.088, -0.092, -0.096, -0.1, -0.104, -0.108, -0.112, -0.116, -0.12, -0.124, -0.128, -0.132, -0.136, -0.14, -0.144, -0.148, -0.152, -0.156, -0.16, -0.164, -0.168, -0.172, -0.176, -0.18, -0.184, -0.188, -0.192, -0.196, -0.2, -0.204, -0.208, -0.212, -0.216, -0.22, -0.224, -0.228, -0.232, -0.236, -0.24, -0.244, -0.248, -0.252, -0.256, -0.26, -0.264, -0.268, -0.272, -0.276, -0.28, -0.284, -0.288, -0.292, -0.296, -0.3, -0.304, -0.308, -0.312, -0.316, -0.32, -0.324, -0.328, -0.332, -0.336, -0.34, -0.34, -0.34, -0.34, -0.34, -0.34, -0.34, -0.34, -0.34, -0.34, -0.34, -0.34, -0.34, -0.34, -0.34, -0.34, -0.34, -0.34, -0.34, -0.34, -0.34, -0.34, -0.344, -0.348, -0.352, -0.356, -0.36, -0.364, -0.368, -0.368, -0.368, -0.368, -0.368, -0.368, -0.368, -0.368, -0.368, -0.368, -0.368, -0.368, -0.368, -0.372, -0.376, -0.38, -0.384, -0.388, -0.388, -0.388, -0.388, -0.388, -0.388, -0.388, -0.388, -0.388, -0.388, -0.388, -0.388, -0.388, -0.392, -0.396, -0.4, -0.4, -0.4, -0.4, -0.4, -0.4, -0.4, -0.4, -0.4, -0.4, -0.4, -0.4, -0.4, -0.4, -0.4, -0.4, -0.4, -0.4, -0.4, -0.4, -0.4, -0.4, -0.4, -0.4, -0.4]",None,None,"['left', 'left', 'left', 'left']","[0.4179095000727102, 1.9183603330748156, 2.1399117910768837, 2.32503304106649]","[1.1796245409641415, 0.08822937496006489, 0.06362158397678286, 0.07598887500353158]",up,2.6454999580746517,None,223.45713975001127,223.46437291696202,223.73634895903524,223.72478441696148,223.72489599999972,223.73634895903524,,224.73566895897966,,224.72563533403445,1,5,223.73634895903524,224.73566895897966,,,,,,,,,,,,,,arnav,,A,2026-03-29_16h11.38.547,asymmetry_final_v2,2024.2.4,120,2026-03-29 16h11.49.915224 -0400,
34,34,0,1,1,baseline,35,3.5,0.3,3.0,0.196,flat,flat_curv,0.0,0.0,-0.3,rew,input_data/stims/Shape_3.50_3.00.png,input_data/stims/Shape_4.00_2.00.png,input_data/stims/Shape_0.00_2.00.png,1,-1,1.0,1.0,1,up,2.24640104197897,None,up,2.0151355830021203,None,None,None,['left'],[0.36560899997130036],[2.179307874990627],up,2.6318757080007344,None,0,0,0,0,0,34,34,35,224.73566895897966,,,,,,,,,,,,,,,,,224.7265003749635,0.0008502909913659096,225.768462209031,225.76851129205897,225.80185950000305,226.88528154196683,226.87611633399501,226.87638250004966,0.0002607080386951566,228.21836358401924,228.21966187504586,228.2992165000178,228.2992165000178,228.2992165000178,228.2992165000178,228.2992165000178,228.2992165000178,228.2992165000178,230.93430920899846,"[0.196, 0.196, 0.196, 0.196, 0.196, 0.196, 0.196, 0.196, 0.196, 0.196, 0.196, 0.196, 0.196, 0.196, 0.196, 0.196, 0.196, 0.196, 0.196, 0.196, 0.196, 0.196, 0.196, 0.196, 0.196, 0.196, 0.196, 0.196, 0.196, 0.196, 0.196, 0.196, 0.196, 0.196, 0.196, 0.192, 0.188, 0.184, 0.18, 0.176, 0.172, 0.168, 0.164, 0.16, 0.156, 0.152, 0.148, 0.144, 0.14, 0.136, 0.132, 0.128, 0.124, 0.12, 0.116, 0.112, 0.108, 0.104, 0.1, 0.096, 0.092, 0.088, 0.084, 0.08, 0.076, 0.072, 0.068, 0.064, 0.06, 0.056, 0.052, 0.048, 0.044, 0.04, 0.036, 0.032, 0.028, 0.024, 0.02, 0.016, 0.012, 0.008, 0.004, 0.0, -0.004, -0.008, -0.012, -0.016, -0.02, -0.024, -0.028, -0.032, -0.036, -0.04, -0.044, -0.048, -0.052, -0.056, -0.06, -0.064, -0.068, -0.072, -0.076, -0.08, -0.084, -0.088, -0.092, -0.096, -0.1, -0.104, -0.108, -0.112, -0.116, -0.12, -0.124, -0.128, -0.132, -0.136, -0.14, -0.144, -0.148, -0.152, -0.156, -0.16, -0.164, -0.168, -0.172, -0.176, -0.18, -0.184, -0.188, -0.192, -0.196, -0.2, -0.204, -0.208, -0.212, -0.216, -0.22, -0.224, -0.228, -0.232, -0.236, -0.24, -0.244, -0.248, -0.252, -0.256, -0.26, -0.264, -0.268, -0.272, -0.276, -0.28, -0.284, -0.288, -0.292, -0.296, -0.3, -0.304, -0.308, -0.312, -0.316, -0.32, -0.324, -0.328, -0.332, -0.336, -0.34, -0.344, -0.348, -0.352, -0.356, -0.36, -0.364, -0.368, -0.372, -0.376, -0.38, -0.384, -0.388, -0.392, -0.396, -0.4, -0.4, -0.4, -0.4, -0.4, -0.4, -0.4, -0.4, -0.4, -0.4, -0.4, -0.4, -0.4, -0.4, -0.4, -0.4, -0.4, -0.4, -0.4, -0.4, -0.4, -0.4, -0.4, -0.4, -0.4, -0.4, -0.4, -0.4, -0.4, -0.4, -0.4, -0.4]",None,None,['left'],[0.36560899997130036],[2.179307874990627],up,2.6318757080007344,None,230.9348387500504,230.93932654196396,231.19246979197487,231.18607850000262,231.1861746669747,231.19246979197487,,232.19199683400802,,232.18580741703045,1,5,231.19246979197487,232.19199683400802,,,,,,,,,,,,,,arnav,,A,2026-03-29_16h11.38.547,asymmetry_final_v2,2024.2.4,120,2026-03-29 16h11.49.915224 -0400,
35,35,0,1,1,baseline,33,3.3,0.26,3.0,-0.176,flat,flat_curv,0.0,0.0,-0.26,rew,input_data/stims/Shape_3.30_3.00.png,input_data/stims/Shape_4.00_2.00.png,input_data/stims/Shape_0.00_2.00.png,1,-1,-1.0,1.0,1,up,2.24640104197897,None,up,2.0151355830021203,None,None,None,['left'],[0.3618265420664102],[0.6954288328997791],up,1.2486658750567585,None,0,0,0,0,0,35,35,33,232.19199683400802,,,,,,,,,,,,,,,,,232.18678574997466,0.0009473750833421946,233.27871854195837,233.27877270895988,233.312487166957,234.35187837504782,234.34447274997365,234.34473195904866,0.00026837491896003485,235.636786667048,235.63808066700585,235.69678158406168,235.69678158406168,235.69678158406168,235.69678158406168,235.69678158406168,235.69678158406168,235.69678158406168,236.95233154203743,"[-0.176, -0.176, -0.176, -0.176, -0.176, -0.176, -0.176, -0.176, -0.176, -0.176, -0.176, -0.176, -0.176, -0.176, -0.176, -0.176, -0.176, -0.176, -0.176, -0.176, -0.176, -0.176, -0.176, -0.176, -0.176, -0.176, -0.176, -0.176, -0.176, -0.176, -0.176, -0.176, -0.176, -0.176, -0.176, -0.176, -0.18, -0.184, -0.188, -0.192, -0.196, -0.2, -0.204, -0.208, -0.212, -0.216, -0.22, -0.224, -0.228, -0.232, -0.236, -0.24, -0.244, -0.248, -0.252, -0.256, -0.26, -0.264, -0.268, -0.272, -0.276, -0.28, -0.284, -0.288, -0.292, -0.296, -0.3, -0.304, -0.308, -0.312, -0.316, -0.32, -0.324, -0.328, -0.332, -0.336, -0.34, -0.344, -0.348, -0.352, -0.356, -0.36, -0.364, -0.368, -0.372, -0.376, -0.38, -0.384, -0.388, -0.388, -0.388, -0.388, -0.388, -0.388, -0.388, -0.388, -0.388, -0.388, -0.388, -0.388, -0.388, -0.388, -0.388, -0.388]",None,None,['left'],[0.3618265420664102],[0.6954288328997791],up,1.2486658750567585,None,236.95270841696765,236.96034650004003,237.2104745840188,237.20335558406077,237.20347149996087,237.2104745840188,,238.20964212506078,,238.20340279198717,1,5,237.2104745840188,238.20964212506078,,,,,,,,,,,,,,arnav,,A,2026-03-29_16h11.38.547,asymmetry_final_v2,2024.2.4,120,2026-03-29 16h11.49.915224 -0400,
36,36,0,1,1,baseline,20,2.1,0.02,1.0,0.368,flat,curv_flat,0.0,0.0,0.02,rew,input_data/stims/Shape_2.10_1.00.png,input_data/stims/Shape_0.00_2.00.png,input_data/stims/Shape_4.00_2.00.png,1,1,1.0,-1.0,1,up,2.24640104197897,None,up,2.0151355830021203,None,None,None,"['left', 'left']","[0.4731266249436885, 1.9256990830181167]","[1.0232831250177696, 0.044008499942719936]",up,2.1701688329922035,None,0,0,0,0,0,36,36,20,238.20964212506078,,,,,,,,,,,,,,,,,238.20424570899922,0.0008276250446215272,239.2962094170507,239.29625650006346,239.33594937506132,240.41939795902,240.4130102089839,240.41331333399285,0.0003153340658172965,241.75530320906546,241.75672075001057,241.81830483407248,241.81830483407248,241.81830483407248,241.81830483407248,241.81830483407248,241.81830483407248,241.81830483407248,244.00574537506327,"[0.368, 0.368, 0.368, 0.368, 0.368, 0.368, 0.368, 0.368, 0.368, 0.368, 0.368, 0.368, 0.368, 0.368, 0.368, 0.368, 0.368, 0.368, 0.368, 0.368, 0.368, 0.368, 0.368, 0.368, 0.368, 0.368, 0.368, 0.368, 0.368, 0.368, 0.368, 0.368, 0.368, 0.368, 0.368, 0.368, 0.368, 0.368, 0.368, 0.368, 0.364, 0.36, 0.356, 0.352, 0.348, 0.344, 0.34, 0.336, 0.332, 0.328, 0.324, 0.32, 0.316, 0.312, 0.308, 0.304, 0.3, 0.296, 0.292, 0.288, 0.284, 0.28, 0.276, 0.272, 0.268, 0.264, 0.26, 0.256, 0.252, 0.248, 0.244, 0.24, 0.236, 0.232, 0.228, 0.224, 0.22, 0.216, 0.212, 0.208, 0.204, 0.2, 0.196, 0.192, 0.188, 0.184, 0.18, 0.176, 0.172, 0.168, 0.164, 0.16, 0.156, 0.152, 0.148, 0.144, 0.14, 0.136, 0.132, 0.128, 0.124, 0.12, 0.116, 0.112, 0.108, 0.104, 0.1, 0.096, 0.092, 0.088, 0.084, 0.08, 0.076, 0.072, 0.068, 0.064, 0.06, 0.056, 0.052, 0.048, 0.044, 0.04, 0.036, 0.032, 0.028, 0.024, 0.02, 0.016, 0.012, 0.008, 0.004, 0.004, 0.004, 0.004, 0.004, 0.004, 0.004, 0.004, 0.004, 0.004, 0.004, 0.004, 0.004, 0.004, 0.004, 0.004, 0.004, 0.004, 0.004, 0.004, 0.004, 0.004, 0.004, 0.004, 0.004, 0.004, 0.004, 0.004, 0.004, 0.004, 0.004, 0.004, 0.004, 0.004, 0.004, 0.004, 0.004, 0.0, -0.004, -0.008, -0.008, -0.008, -0.008, -0.008, -0.008, -0.008, -0.008, -0.008, -0.008, -0.008, -0.008, -0.008, -0.008, -0.008, -0.008, -0.008]",None,None,"['left', 'left']","[0.4731266249436885, 1.9256990830181167]","[1.0232831250177696, 0.044008499942719936]",up,2.1701688329922035,None,244.00643562502228,244.01929545903113,244.2686564590549,244.2587394589791,244.25885962496977,244.2686564590549,,245.269804959069,,245.25870833406225,0,-1,,,,,244.2686564590549,245.269804959069,,,,,,,,,,arnav,,A,2026-03-29_16h11.38.547,asymmetry_final_v2,2024.2.4,120,2026-03-29 16h11.49.915224 -0400,
37,37,0,1,1,baseline,28,2.9,0.18,1.0,0.38,flat,curv_flat,0.0,0.0,0.18,rew,input_data/stims/Shape_2.90_1.00.png,input_data/stims/Shape_0.00_2.00.png,input_data/stims/Shape_4.00_2.00.png,1,1,1.0,-1.0,1,up,2.24640104197897,None,up,2.0151355830021203,None,None,None,['left'],[0.48676737397909164],[1.0525111670140177],up,1.7705305410781875,None,0,0,0,0,0,37,37,28,245.269804959069,,,,,,,,,,,,,,,,,245.25962500006426,0.0009019580902531743,246.35160833399277,246.3516595000401,246.38905462506227,247.40217820904218,247.39385170897003,247.3941455000313,0.0002975419629365206,248.78606104198843,248.78746879205573,248.8491159590194,248.8491159590194,248.8491159590194,248.8491159590194,248.8491159590194,248.8491159590194,248.8491159590194,250.63076133397408,"[0.38, 0.38, 0.38, 0.38, 0.38, 0.38, 0.38, 0.38, 0.38, 0.38, 0.38, 0.38, 0.38, 0.38, 0.38, 0.38, 0.38, 0.38, 0.38, 0.38, 0.38, 0.38, 0.38, 0.38, 0.38, 0.38, 0.38, 0.38, 0.38, 0.38, 0.38, 0.38, 0.38, 0.38, 0.38, 0.38, 0.38, 0.38, 0.38, 0.38, 0.38, 0.38, 0.38, 0.38, 0.38, 0.38, 0.38, 0.376, 0.372, 0.368, 0.364, 0.36, 0.356, 0.352, 0.348, 0.344, 0.34, 0.336, 0.332, 0.328, 0.324, 0.32, 0.316, 0.312, 0.308, 0.304, 0.3, 0.296, 0.292, 0.288, 0.284, 0.28, 0.276, 0.272, 0.268, 0.264, 0.26, 0.256, 0.252, 0.248, 0.244, 0.24, 0.236, 0.232, 0.228, 0.224, 0.22, 0.216, 0.212, 0.208, 0.204, 0.2, 0.196, 0.192, 0.188, 0.184, 0.18, 0.176, 0.172, 0.168, 0.164, 0.16, 0.156, 0.152, 0.148, 0.144, 0.14, 0.136, 0.132, 0.128, 0.124, 0.12, 0.116, 0.112, 0.108, 0.104, 0.1, 0.096, 0.092, 0.088, 0.084, 0.08, 0.076, 0.072, 0.068, 0.064, 0.06, 0.056, 0.052, 0.048, 0.044, 0.044, 0.044, 0.044, 0.044, 0.044, 0.044, 0.044, 0.044, 0.044, 0.044, 0.044, 0.044, 0.044, 0.044, 0.044, 0.044, 0.044, 0.044, 0.044, 0.044, 0.044, 0.044, 0.044, 0.044]",None,None,['left'],[0.48676737397909164],[1.0525111670140177],up,1.7705305410781875,None,250.6310301249614,250.63825037505012,250.89400729199406,250.88692483399063,250.88706804206595,250.89400729199406,,251.90272320900112,,251.89233087503817,1,5,250.89400729199406,251.90272320900112,,,,,,,,,,,,,,arnav,,A,2026-03-29_16h11.38.547,asymmetry_final_v2,2024.2.4,120,2026-03-29 16h11.49.915224 -0400,
38,38,0,1,1,baseline,0,0.1,-0.38,1.0,-0.328,curv,curv_flat,0.0,0.0,-0.38,pen,input_data/stims/Shape_0.10_1.00.png,input_data/stims/Shape_0.00_2.00.png,input_data/stims/Shape_4.00_2.00.png,-1,1,-1.0,-1.0,-1,up,2.24640104197897,None,up,2.0151355830021203,None,None,None,"['left', 'right', 'left']","[0.42597504099830985, 0.6393105830065906, 1.2449633750366047]","[0.03918516694102436, 0.3120331249665469, 0.22397254093084484]",up,1.6537641249597073,None,0,0,0,0,0,38,38,0,251.90272320900112,,,,,,,,,,,,,,,,,251.8932601250708,0.000916499993763864,252.78518312505912,252.78523262497038,252.8207192500122,253.83505708398297,253.82849191699643,253.82875191699713,0.00026708305813372135,255.1706572920084,255.17190966696944,255.2306798750069,255.2306798750069,255.2306798750069,255.2306798750069,255.2306798750069,255.2306798750069,255.2306798750069,256.89448370900936,"[-0.328, -0.328, -0.328, -0.328, -0.328, -0.328, -0.328, -0.328, -0.328, -0.328, -0.328, -0.328, -0.328, -0.328, -0.328, -0.328, -0.328, -0.328, -0.328, -0.328, -0.328, -0.328, -0.328, -0.328, -0.328, -0.328, -0.328, -0.328, -0.328, -0.328, -0.328, -0.328, -0.328, -0.328, -0.328, -0.328, -0.328, -0.328, -0.328, -0.328, -0.328, -0.328, -0.328, -0.328, -0.332, -0.336, -0.34, -0.34, -0.34, -0.34, -0.34, -0.34, -0.34, -0.34, -0.34, -0.34, -0.34, -0.34, -0.34, -0.34, -0.34, -0.34, -0.336, -0.332, -0.328, -0.324, -0.32, -0.316, -0.312, -0.308, -0.304, -0.3, -0.296, -0.292, -0.288, -0.284, -0.28, -0.276, -0.272, -0.268, -0.264, -0.26, -0.256, -0.252, -0.248, -0.244, -0.24, -0.236, -0.236, -0.236, -0.236, -0.236, -0.236, -0.236, -0.236, -0.236, -0.236, -0.236, -0.236, -0.236, -0.236, -0.236, -0.236, -0.236, -0.236, -0.236, -0.236, -0.236, -0.236, -0.236, -0.236, -0.236, -0.236, -0.24, -0.244, -0.248, -0.252, -0.256, -0.26, -0.264, -0.268, -0.272, -0.276, -0.28, -0.284, -0.288, -0.292, -0.296, -0.3, -0.3, -0.3, -0.3, -0.3, -0.3, -0.3, -0.3, -0.3, -0.3, -0.3, -0.3, -0.3, -0.3, -0.3, -0.3, -0.3, -0.3, -0.3, -0.3]",None,None,"['left', 'right', 'left']","[0.42597504099830985, 0.6393105830065906, 1.2449633750366047]","[0.03918516694102436, 0.3120331249665469, 0.22397254093084484]",up,1.6537641249597073,None,256.894921084051,256.90209908399265,257.17747979203705,257.17017758404836,257.1702713749837,257.17747979203705,,258.1756757090334,,258.1699327089591,1,1,,,257.17747979203705,258.1756757090334,,,,,,,,,,,,arnav,,A,2026-03-29_16h11.38.547,asymmetry_final_v2,2024.2.4,120,2026-03-29 16h11.49.915224 -0400,
39,39,0,1,1,baseline,11,1.1,-0.18,1.0,0.388,curv,flat_curv,0.0,0.0,0.18,pen,input_data/stims/Shape_1.10_1.00.png,input_data/stims/Shape_4.00_2.00.png,input_data/stims/Shape_0.00_2.00.png,-1,-1,1.0,-1.0,-1,up,2.24640104197897,None,up,2.0151355830021203,None,None,None,"['left', 'left']","[0.30189733300358057, 0.6551681250566617]","[0.20341624994762242, 0.4999848749721423]",up,1.4434091669972986,None,0,0,0,0,0,39,39,11,258.1756757090334,,,,,,,,,,,,,,,,,258.1708185840398,0.0008731660200282931,259.1127537089633,259.1128091249848,259.1452320420649,260.25185891706496,260.24433129199315,260.2447077500401,0.00039779196958988905,261.7366867499659,261.738065459067,261.7968393750489,261.7968393750489,261.7968393750489,261.7968393750489,261.7968393750489,261.7968393750489,261.7968393750489,263.2516670000041,"[0.388, 0.388, 0.388, 0.388, 0.388, 0.388, 0.388, 0.388, 0.388, 0.388, 0.388, 0.388, 0.388, 0.388, 0.388, 0.388, 0.388, 0.388, 0.388, 0.388, 0.388, 0.388, 0.388, 0.388, 0.388, 0.388, 0.388, 0.384, 0.38, 0.376, 0.372, 0.368, 0.364, 0.36, 0.356, 0.352, 0.348, 0.344, 0.34, 0.336, 0.332, 0.328, 0.324, 0.324, 0.324, 0.324, 0.324, 0.324, 0.324, 0.324, 0.324, 0.324, 0.324, 0.324, 0.324, 0.32, 0.316, 0.312, 0.308, 0.304, 0.3, 0.296, 0.292, 0.288, 0.284, 0.28, 0.276, 0.272, 0.268, 0.264, 0.26, 0.256, 0.252, 0.248, 0.244, 0.24, 0.236, 0.232, 0.228, 0.224, 0.22, 0.216, 0.212, 0.208, 0.204, 0.2, 0.196, 0.192, 0.188, 0.184, 0.18, 0.176, 0.172, 0.168, 0.164, 0.16, 0.156, 0.156, 0.156, 0.156, 0.156, 0.156, 0.156, 0.156, 0.156, 0.156, 0.156, 0.156, 0.156, 0.156, 0.156, 0.156, 0.156, 0.156, 0.156, 0.156, 0.156, 0.156, 0.156, 0.156, 0.156]",None,None,"['left', 'left']","[0.30189733300358057, 0.6551681250566617]","[0.20341624994762242, 0.4999848749721423]",up,1.4434091669972986,None,263.2522043749923,263.2598220000509,263.5111032089917,263.5035913749598,263.5037253340706,263.5111032089917,,264.5762424169807,,264.52557429205626,1,1,,,263.5111032089917,264.5762424169807,,,,,,,,,,,,arnav,,A,2026-03-29_16h11.38.547,asymmetry_final_v2,2024.2.4,120,2026-03-29 16h11.49.915224 -0400,
0,0,0,2,1,curv_comp,46,0.7,-0.26,3.0,-0.312,curv,curv_flat,-0.2,-0.2,-0.26,pen,input_data/stims/Shape_0.70_3.00.png,input_data/stims/Shape_0.00_2.00.png,input_data/stims/Shape_4.00_2.00.png,-1,1,-1.0,1.0,-1,None,,,up,0.6114263749914244,None,None,None,"['right', 'right', 'right', 'right']","[0.6868286239914596, 1.1025914989877492, 1.5067576239816844, 1.7437297489959747]","[0.19921112502925098, 0.12409712502267212, 0.11607041698880494, 0.06811012502294034]",up,1.9791196240112185,None,1,0,1,0,0,0,0,6,267.86250000004657,,267.1615143340314,,,,267.16160345904063,None,,,267.167621458997,267.1756818339927,267.1756818339927,267.7939255000092,up,0.6114263749914244,None,267.8565227090148,0.06253079103771597,268.7994090419961,268.7994663750287,268.831173417042,269.8352680420503,269.82777033396997,269.8280715419678,0.0003044579643756151,271.3200953339692,271.3214708750602,271.38581841706764,271.38581841706764,271.38581841706764,271.38581841706764,271.38581841706764,271.38581841706764,271.38581841706764,273.37092554196715,"[-0.312, -0.312, -0.312, -0.312, -0.312, -0.312, -0.312, -0.312, -0.312, -0.312, -0.312, -0.312, -0.312, -0.312, -0.312, -0.312, -0.312, -0.312, -0.312, -0.312, -0.312, -0.312, -0.312, -0.312, -0.312, -0.312, -0.312, -0.312, -0.312, -0.312, -0.312, -0.312, -0.312, -0.312, -0.312, -0.312, -0.312, -0.312, -0.312, -0.312, -0.312, -0.312, -0.312, -0.312, -0.312, -0.312, -0.312, -0.312, -0.312, -0.312, -0.312, -0.312, -0.312, -0.312, -0.312, -0.312, -0.312, -0.312, -0.312, -0.312, -0.312, -0.312, -0.312, -0.308, -0.304, -0.3, -0.296, -0.292, -0.288, -0.284, -0.28, -0.276, -0.272, -0.268, -0.264, -0.26, -0.256, -0.252, -0.252, -0.252, -0.252, -0.252, -0.252, -0.252, -0.252, -0.252, -0.252, -0.252, -0.252, -0.252, -0.252, -0.252, -0.252, -0.252, -0.252, -0.252, -0.252, -0.252, -0.248, -0.244, -0.24, -0.236, -0.232, -0.228, -0.224, -0.224, -0.224, -0.224, -0.224, -0.224, -0.224, -0.224, -0.224, -0.224, -0.224, -0.224, -0.224, -0.224, -0.224, -0.224, -0.224, -0.224, -0.224, -0.224, -0.224, -0.22, -0.216, -0.212, -0.208, -0.204, -0.2, -0.196, -0.192, -0.188, -0.188, -0.188, -0.188, -0.188, -0.188, -0.188, -0.188, -0.188, -0.188, -0.188, -0.188, -0.184, -0.18, -0.176, -0.172, -0.168, -0.168, -0.168, -0.168, -0.168, -0.168, -0.168, -0.168, -0.168, -0.168, -0.168, -0.168, -0.168, -0.168]",None,None,"['right', 'right', 'right', 'right']","[0.6868286239914596, 1.1025914989877492, 1.5067576239816844, 1.7437297489959747]","[0.19921112502925098, 0.12409712502267212, 0.11607041698880494, 0.06811012502294034]",up,1.9791196240112185,None,273.3713942919858,273.3782380420016,273.64451316697523,273.6369458340341,273.6370604169788,273.64451316697523,273.64451316697523,274.6423866250552,274.6423866250552,274.63622524996754,0,-5,,,,,,,264.5701702920487,264.5762424169807,264.5762424169807,267.16117500001565,102,14,up,2.5791277079842985,None,arnav,,A,2026-03-29_16h11.38.547,asymmetry_final_v2,2024.2.4,120,2026-03-29 16h11.49.915224 -0400,
1,1,0,2,1,curv_comp,55,1.5,-0.1,3.0,-0.188,flat,flat_curv,-0.2,0.2,0.1,rew,input_data/stims/Shape_1.50_3.00.png,input_data/stims/Shape_4.00_2.00.png,input_data/stims/Shape_0.00_2.00.png,1,-1,-1.0,1.0,1,None,,,up,0.6114263749914244,None,None,None,['right'],[0.4507705420255661],[0.5472344580339268],up,1.2733820830471814,None,1,0,1,0,0,1,1,15,274.6423866250552,,,,,,,,,,,,,,,,,274.63709970901255,0.0008602499729022384,275.5290520420531,275.5290989590576,275.5612917500548,276.55743475002237,276.55244308395777,276.5527315840591,0.0002930830232799053,277.8947232919745,277.89605716697406,277.9604182500625,277.9604182500625,277.9604182500625,277.9604182500625,277.9604182500625,277.9604182500625,277.9604182500625,279.2395124169998,"[-0.188, -0.188, -0.188, -0.188, -0.188, -0.188, -0.188, -0.188, -0.188, -0.188, -0.188, -0.188, -0.188, -0.188, -0.188, -0.188, -0.188, -0.188, -0.188, -0.188, -0.188, -0.188, -0.188, -0.188, -0.188, -0.188, -0.188, -0.188, -0.188, -0.188, -0.188, -0.188, -0.188, -0.188, -0.188, -0.188, -0.188, -0.188, -0.188, -0.188, -0.188, -0.188, -0.188, -0.188, -0.188, -0.184, -0.18, -0.176, -0.172, -0.168, -0.164, -0.16, -0.156, -0.152, -0.148, -0.144, -0.14, -0.136, -0.132, -0.128, -0.124, -0.12, -0.116, -0.112, -0.108, -0.104, -0.1, -0.096, -0.092, -0.088, -0.084, -0.08, -0.076, -0.072, -0.068, -0.064, -0.06, -0.056, -0.052, -0.048, -0.044, -0.04, -0.036, -0.032, -0.028, -0.024, -0.02, -0.016, -0.012, -0.008, -0.008, -0.008, -0.008, -0.008, -0.008, -0.008, -0.008, -0.008, -0.008, -0.008, -0.008, -0.008, -0.008, -0.008, -0.008, -0.008, -0.008, -0.008, -0.008, -0.008, -0.008, -0.008, -0.008, -0.008]",None,None,['right'],[0.4507705420255661],[0.5472344580339268],up,1.2733820830471814,None,279.24002358398866,279.24911666696426,279.55291512503754,279.54165295907296,279.5417716669617,279.55291512503754,,280.5533068339573,,280.5414797089761,1,5,279.55291512503754,280.5533068339573,,,,,,,,,,,,,,arnav,,A,2026-03-29_16h11.38.547,asymmetry_final_v2,2024.2.4,120,2026-03-29 16h11.49.915224 -0400,
2,2,0,2,1,curv_comp,48,0.9,-0.22,3.0,-0.384,curv,curv_flat,-0.2,-0.2,-0.22,pen,input_data/stims/Shape_0.90_3.00.png,input_data/stims/Shape_0.00_2.00.png,input_data/stims/Shape_4.00_2.00.png,-1,1,-1.0,1.0,-1,None,,,up,0.6114263749914244,None,None,None,"['right', 'right']","[0.49965366697870195, 1.2862800000002608]","[0.5510068329749629, 0.11191945790778846]",up,1.6714688749052584,None,1,0,1,0,0,2,2,8,280.5533068339573,,,,,,,,,,,,,,,,,280.54237275000196,0.0008808750426396728,281.5343597920146,281.5344082500087,281.5713264590595,282.59233091701753,282.5871747500496,282.5875012089964,0.00033304200042039156,283.9795176250627,283.98082249995787,284.0438170420239,284.0438170420239,284.0438170420239,284.0438170420239,284.0438170420239,284.0438170420239,284.0438170420239,285.72790412500035,"[-0.384, -0.384, -0.384, -0.384, -0.384, -0.384, -0.384, -0.384, -0.384, -0.384, -0.384, -0.384, -0.384, -0.384, -0.384, -0.384, -0.384, -0.384, -0.384, -0.384, -0.384, -0.384, -0.384, -0.384, -0.384, -0.384, -0.384, -0.384, -0.384, -0.384, -0.384, -0.384, -0.384, -0.384, -0.384, -0.384, -0.384, -0.384, -0.384, -0.384, -0.384, -0.384, -0.384, -0.384, -0.384, -0.38, -0.376, -0.372, -0.368, -0.364, -0.36, -0.356, -0.352, -0.348, -0.344, -0.34, -0.336, -0.332, -0.328, -0.324, -0.32, -0.316, -0.312, -0.308, -0.304, -0.3, -0.296, -0.292, -0.288, -0.284, -0.28, -0.276, -0.272, -0.268, -0.264, -0.26, -0.256, -0.252, -0.248, -0.244, -0.24, -0.236, -0.232, -0.228, -0.224, -0.22, -0.216, -0.212, -0.212, -0.212, -0.212, -0.212, -0.212, -0.212, -0.212, -0.212, -0.212, -0.212, -0.212, -0.212, -0.212, -0.212, -0.212, -0.212, -0.212, -0.212, -0.212, -0.212, -0.212, -0.212, -0.212, -0.212, -0.208, -0.204, -0.2, -0.196, -0.192, -0.188, -0.184, -0.18, -0.176, -0.172, -0.172, -0.172, -0.172, -0.172, -0.172, -0.172, -0.172, -0.172, -0.172, -0.172, -0.172, -0.172, -0.172, -0.172, -0.172, -0.172, -0.172, -0.172, -0.172, -0.172, -0.172, -0.172, -0.172, -0.172]",None,None,"['right', 'right']","[0.49965366697870195, 1.2862800000002608]","[0.5510068329749629, 0.11191945790778846]",up,1.6714688749052584,None,285.7283457920421,285.73559254198335,285.99341524997726,285.98669045895804,285.9867750420235,285.99341524997726,285.99341524997726,287.0021431669593,287.0021431669593,286.99379220895935,0,-5,,,,,,,,,,,,,,,,arnav,,A,2026-03-29_16h11.38.547,asymmetry_final_v2,2024.2.4,120,2026-03-29 16h11.49.915224 -0400,
