thisN,thisTrialN,thisRepN,blockN,run,condition,trial_key,stim_file_pos,stim_pos,noise_pos,marker_init,shape,shape_order,true_div,div_pos,target_pos,valence,target_file,img1_file,img2_file,valence_direction,direction,marker_direction,noise_direction,shape_category,valence_resp.keys,valence_resp.rt,valence_resp.duration,block_start_resp.keys,block_start_resp.rt,block_start_resp.duration,marker.response,marker.rt,slider_resp.keys,slider_resp.rt,slider_resp.duration,submit_resp.keys,submit_resp.rt,submit_resp.duration,blocks.thisRepN,blocks.thisTrialN,blocks.thisN,blocks.thisIndex,trials.thisRepN,trials.thisTrialN,trials.thisN,trials.thisIndex,thisRow.t,notes,valence_instruct.started,valence_image.started,valence_text.started,valence_resp.started,valence_instruct.stopped,blocks.valence_resp.keys,blocks.valence_resp.rt,blocks.valence_resp.duration,block_start.started,block_start_text.started,block_start_resp.started,block_start.stopped,blocks.block_start_resp.keys,blocks.block_start_resp.rt,blocks.block_start_resp.duration,baseline.started,ISI1.started,baseline.stopped,stim.started,target_stim.started,target_stim.stopped,stim.stopped,delay.started,ISI2.started,delay.stopped,task.started,img1.started,img2.started,divider_line.started,slider_line.started,marker.started,slider_resp.started,submit_resp.started,task.stopped,positions,trials.marker.response,trials.marker.rt,trials.slider_resp.keys,trials.slider_resp.rt,trials.slider_resp.duration,trials.submit_resp.keys,trials.submit_resp.rt,trials.submit_resp.duration,anticipation.started,anticipation_text.started,anticipation_text.stopped,anticipation.stopped,feedback.started,no_resp_text.started,one_coin.started,no_resp_text.stopped,one_coin.stopped,feedback.stopped,correct,outcome,three_coin.started,three_coin.stopped,one_cross.started,one_cross.stopped,three_cross.started,three_cross.stopped,block_end.started,block_end_text.started,block_end_resp.started,block_end.stopped,block_outcome,block_bonus,blocks.block_end_resp.keys,blocks.block_end_resp.rt,blocks.block_end_resp.duration,img1.stopped,img2.stopped,divider_line.stopped,slider_line.stopped,marker.stopped,slider_resp.stopped,submit_resp.stopped,subj,difficulty,sess_type,date,expName,psychopyVersion,frameRate,expStart,
0,0,0,1,1,baseline,7,0.7,-0.26,3.0,0.064,curv,flat_curv,0.0,0.0,0.26,pen,input_data/stims/Shape_0.70_3.00.png,input_data/stims/Shape_4.00_2.00.png,input_data/stims/Shape_0.00_2.00.png,-1,-1,1.0,1.0,-1,up,4.250499791000038,None,up,0.946328874968458,None,None,None,"['left', 'right']","[1.0181827070191503, 1.5722688320092857]","[0.2472505840123631, 0.15205504198092967]",up,2.0889478320023045,None,0,0,0,0,0,0,0,7,5.762320999987423,,0.240273333969526,0.4426732919528149,0.4426732919528149,0.4426732919528149,4.696975249971729,up,4.250499791000038,None,4.71204662497621,4.738196999998763,4.738196999998763,5.696219042001758,up,0.946328874968458,None,5.755959125002846,0.05965700000524521,6.74877862498397,6.748826499970164,6.791425834002439,7.944034041953273,7.937571374990512,7.937919999996666,0.00034129200503230095,9.279783291975036,9.28116183396196,9.380132958991453,9.380132958991453,9.380132958991453,9.380132958991453,9.380132958991453,9.380132958991453,9.380132958991453,11.473882666963618,"[0.064, 0.064, 0.064, 0.064, 0.064, 0.064, 0.064, 0.064, 0.064, 0.064, 0.064, 0.064, 0.064, 0.064, 0.064, 0.064, 0.064, 0.064, 0.064, 0.064, 0.064, 0.064, 0.064, 0.064, 0.064, 0.064, 0.064, 0.064, 0.064, 0.064, 0.064, 0.064, 0.064, 0.064, 0.064, 0.064, 0.064, 0.064, 0.064, 0.064, 0.064, 0.064, 0.064, 0.064, 0.064, 0.064, 0.064, 0.064, 0.064, 0.064, 0.064, 0.064, 0.064, 0.064, 0.064, 0.064, 0.064, 0.064, 0.064, 0.064, 0.064, 0.064, 0.064, 0.064, 0.064, 0.064, 0.064, 0.064, 0.064, 0.064, 0.064, 0.064, 0.064, 0.064, 0.064, 0.064, 0.064, 0.064, 0.064, 0.064, 0.064, 0.064, 0.064, 0.064, 0.064, 0.064, 0.064, 0.064, 0.064, 0.064, 0.064, 0.064, 0.064, 0.064, 0.064, 0.064, 0.064, 0.06, 0.056, 0.052, 0.048, 0.044, 0.04, 0.036, 0.032, 0.028, 0.024, 0.02, 0.016, 0.012, 0.008, 0.004, 0.0, -0.004, -0.008, -0.012, -0.016, -0.02, -0.024, -0.024, -0.024, -0.024, -0.024, -0.024, -0.024, -0.024, -0.024, -0.024, -0.024, -0.024, -0.024, -0.024, -0.024, -0.024, -0.024, -0.024, -0.024, -0.024, -0.024, -0.024, -0.024, -0.024, -0.024, -0.024, -0.024, -0.024, -0.02, -0.016, -0.012, -0.008, -0.004, 0.0, 0.004, 0.008, 0.012, 0.016, 0.016, 0.016, 0.016, 0.016, 0.016, 0.016, 0.016, 0.016, 0.016, 0.016, 0.016, 0.016, 0.016, 0.016, 0.016, 0.016, 0.016, 0.016, 0.016, 0.016, 0.016, 0.016, 0.016, 0.016, 0.016, 0.016, 0.016, 0.016, 0.016, 0.016, 0.016, 0.016, 0.016]",None,None,"['left', 'right']","[1.0181827070191503, 1.5722688320092857]","[0.2472505840123631, 0.15205504198092967]",up,2.0889478320023045,None,11.474426375003532,11.482636583968997,11.737945708970074,11.72806287498679,11.728172458999325,11.737945708970074,11.737945708970074,12.74481087498134,12.74481087498134,12.733938208955806,1,1,,,,,,,,,,,,,,,,,,,,,,,kahini,patients,A,2026-03-24_16h41.25.379,asymmetry_final,2024.2.4,120,2026-03-24 16h41.58.434959 -0400,
1,1,0,1,1,baseline,21,2.1,0.02,1.0,0.076,flat,flat_curv,0.0,0.0,-0.02,rew,input_data/stims/Shape_2.10_1.00.png,input_data/stims/Shape_4.00_2.00.png,input_data/stims/Shape_0.00_2.00.png,1,-1,1.0,-1.0,1,up,4.250499791000038,None,up,0.946328874968458,None,None,None,"['left', 'right']","[0.7120092069962993, 1.500924790976569]","[0.3828788749524392, 0.13596145797055215]",up,1.978050165984314,None,0,0,0,0,0,1,1,21,12.74481087498134,,,,,,,,,,,,,,,,,12.734661166963633,0.0006915839621797204,13.676593749958556,13.676653458969668,13.709288958983961,14.737135167000815,14.729185083997436,14.72954062500503,0.00035454099997878075,16.121466333977878,16.122729249997064,16.185799499973655,16.185799499973655,16.185799499973655,16.185799499973655,16.185799499973655,16.185799499973655,16.185799499973655,18.175457083969377,"[0.076, 0.076, 0.076, 0.076, 0.076, 0.076, 0.076, 0.076, 0.076, 0.076, 0.076, 0.076, 0.076, 0.076, 0.076, 0.076, 0.076, 0.076, 0.076, 0.076, 0.076, 0.076, 0.076, 0.076, 0.076, 0.076, 0.076, 0.076, 0.076, 0.076, 0.076, 0.076, 0.076, 0.076, 0.076, 0.076, 0.076, 0.076, 0.076, 0.076, 0.076, 0.076, 0.076, 0.076, 0.076, 0.076, 0.076, 0.076, 0.076, 0.076, 0.076, 0.076, 0.076, 0.076, 0.076, 0.076, 0.076, 0.076, 0.076, 0.076, 0.076, 0.076, 0.076, 0.076, 0.076, 0.072, 0.068, 0.064, 0.06, 0.056, 0.052, 0.048, 0.044, 0.04, 0.036, 0.032, 0.028, 0.024, 0.02, 0.016, 0.012, 0.008, 0.004, 0.0, -0.004, -0.008, -0.012, -0.016, -0.02, -0.024, -0.028, -0.032, -0.036, -0.04, -0.044, -0.048, -0.048, -0.048, -0.048, -0.048, -0.048, -0.048, -0.048, -0.048, -0.048, -0.048, -0.048, -0.048, -0.048, -0.048, -0.048, -0.048, -0.048, -0.048, -0.048, -0.048, -0.048, -0.048, -0.048, -0.048, -0.048, -0.048, -0.048, -0.048, -0.048, -0.048, -0.048, -0.048, -0.048, -0.048, -0.048, -0.044, -0.04, -0.036, -0.032, -0.028, -0.024, -0.02, -0.016, -0.016, -0.016, -0.016, -0.016, -0.016, -0.016, -0.016, -0.016, -0.016, -0.016, -0.016, -0.016, -0.016, -0.016, -0.016, -0.016, -0.016, -0.016, -0.016, -0.016, -0.016, -0.016, -0.016, -0.016, -0.016, -0.016, -0.016, -0.016]",None,None,"['left', 'right']","[0.7120092069962993, 1.500924790976569]","[0.3828788749524392, 0.13596145797055215]",up,1.978050165984314,None,18.175845958990976,18.182878499967046,18.43630416697124,18.428492624952924,18.42860300000757,18.43630416697124,,19.44366395898396,,19.432819874957204,1,5,18.43630416697124,19.44366395898396,,,,,,,,,,,,,,,,,,,,,kahini,patients,A,2026-03-24_16h41.25.379,asymmetry_final,2024.2.4,120,2026-03-24 16h41.58.434959 -0400,
2,2,0,1,1,baseline,17,1.7,-0.06,3.0,0.232,curv,flat_curv,0.0,0.0,0.06,pen,input_data/stims/Shape_1.70_3.00.png,input_data/stims/Shape_4.00_2.00.png,input_data/stims/Shape_0.00_2.00.png,-1,-1,1.0,1.0,-1,up,4.250499791000038,None,up,0.946328874968458,None,None,None,"['left', 'left', 'right']","[0.5380105820368044, 1.2182059159968048, 1.8718563740258105]","[0.32327416696352884, 0.42391612502979115, 0.16403383301803842]",up,2.3511071240063757,None,0,0,0,0,0,2,2,17,19.44366395898396,,,,,,,,,,,,,,,,,19.433649874990806,0.0007914159796200693,20.375672333990224,20.375729874998797,20.409845333953854,21.43569212500006,21.429991083976347,21.430252541962545,0.00026904098922386765,22.822199958958663,22.82353587495163,22.88661287497962,22.88661287497962,22.88661287497962,22.88661287497962,22.88661287497962,22.88661287497962,22.88661287497962,25.25294783397112,"[0.232, 0.232, 0.232, 0.232, 0.232, 0.232, 0.232, 0.232, 0.232, 0.232, 0.232, 0.232, 0.232, 0.232, 0.232, 0.232, 0.232, 0.232, 0.232, 0.232, 0.232, 0.232, 0.232, 0.232, 0.232, 0.232, 0.232, 0.232, 0.232, 0.232, 0.232, 0.232, 0.232, 0.232, 0.232, 0.232, 0.232, 0.232, 0.232, 0.232, 0.232, 0.232, 0.232, 0.232, 0.232, 0.232, 0.232, 0.232, 0.228, 0.224, 0.22, 0.216, 0.212, 0.208, 0.204, 0.2, 0.196, 0.192, 0.188, 0.184, 0.18, 0.176, 0.172, 0.168, 0.164, 0.16, 0.156, 0.152, 0.148, 0.144, 0.14, 0.136, 0.132, 0.132, 0.132, 0.132, 0.132, 0.132, 0.132, 0.132, 0.132, 0.132, 0.132, 0.132, 0.132, 0.132, 0.132, 0.132, 0.132, 0.132, 0.132, 0.132, 0.132, 0.132, 0.132, 0.132, 0.132, 0.132, 0.132, 0.132, 0.132, 0.132, 0.132, 0.132, 0.128, 0.124, 0.12, 0.116, 0.112, 0.108, 0.104, 0.1, 0.096, 0.092, 0.088, 0.084, 0.08, 0.076, 0.072, 0.068, 0.064, 0.06, 0.056, 0.052, 0.048, 0.044, 0.04, 0.036, 0.032, 0.028, 0.024, 0.02, 0.016, 0.012, 0.008, 0.004, 0.0, -0.004, -0.008, -0.008, -0.008, -0.008, -0.008, -0.008, -0.008, -0.008, -0.008, -0.008, -0.008, -0.008, -0.008, -0.008, -0.008, -0.008, -0.008, -0.008, -0.008, -0.008, -0.008, -0.008, -0.008, -0.004, 0.0, 0.004, 0.008, 0.012, 0.016, 0.02, 0.024, 0.028, 0.032, 0.036, 0.036, 0.036, 0.036, 0.036, 0.036, 0.036, 0.036, 0.036, 0.036, 0.036, 0.036, 0.036, 0.036, 0.036, 0.036, 0.036, 0.036, 0.036, 0.036, 0.036, 0.036, 0.036, 0.036, 0.036, 0.036, 0.036, 0.036, 0.036, 0.036, 0.036, 0.036]",None,None,"['left', 'left', 'right']","[0.5380105820368044, 1.2182059159968048, 1.8718563740258105]","[0.32327416696352884, 0.42391612502979115, 0.16403383301803842]",up,2.3511071240063757,None,25.253474625002127,25.260161334008444,25.519687541993335,25.51177620899398,25.511891499976628,25.519687541993335,25.519687541993335,26.561009208962787,26.561009208962787,26.5509239169769,1,1,,,,,,,,,,,,,,,,,,,,,,,kahini,patients,A,2026-03-24_16h41.25.379,asymmetry_final,2024.2.4,120,2026-03-24 16h41.58.434959 -0400,
3,3,0,1,1,baseline,30,3.1,0.22,3.0,0.128,flat,curv_flat,0.0,0.0,0.22,rew,input_data/stims/Shape_3.10_3.00.png,input_data/stims/Shape_0.00_2.00.png,input_data/stims/Shape_4.00_2.00.png,1,1,1.0,1.0,1,up,4.250499791000038,None,up,0.946328874968458,None,None,None,None,,,up,1.6140444990014657,None,0,0,0,0,0,3,3,30,26.561009208962787,,,,,,,,,,,,,,,,,26.551792999962345,0.0008552909712307155,27.493720416969154,27.493771666951943,27.527168124972377,28.63657258398598,28.63000204198761,28.63042341696564,0.00045245798537507653,30.022512083989568,30.023829541984014,30.08804170897929,30.08804170897929,30.08804170897929,30.08804170897929,30.08804170897929,30.08804170897929,30.08804170897929,31.709819624957163,"[0.128, 0.128, 0.128, 0.128, 0.128, 0.128, 0.128, 0.128, 0.128, 0.128, 0.128, 0.128, 0.128, 0.128, 0.128, 0.128, 0.128, 0.128, 0.128, 0.128, 0.128, 0.128, 0.128, 0.128, 0.128, 0.128, 0.128, 0.128, 0.128, 0.128, 0.128, 0.128, 0.128, 0.128, 0.128, 0.128, 0.128, 0.128, 0.128, 0.128, 0.128, 0.128, 0.128, 0.128, 0.128, 0.128, 0.128, 0.128, 0.128, 0.128, 0.128, 0.128, 0.128, 0.128, 0.128, 0.128, 0.128, 0.128, 0.128, 0.128, 0.128, 0.128, 0.128, 0.128, 0.128, 0.128, 0.128, 0.128, 0.128, 0.128, 0.128, 0.128, 0.128, 0.128, 0.128, 0.128, 0.128, 0.128, 0.128, 0.128, 0.128, 0.128, 0.128, 0.128, 0.128, 0.128, 0.128, 0.128, 0.128, 0.128, 0.128, 0.128, 0.128, 0.128, 0.128, 0.128, 0.128, 0.128, 0.128, 0.128, 0.128, 0.128, 0.128, 0.128, 0.128, 0.128, 0.128, 0.128, 0.128, 0.128, 0.128, 0.128, 0.128, 0.128, 0.128, 0.128, 0.128, 0.128, 0.128, 0.128, 0.128, 0.128, 0.128, 0.128, 0.128, 0.128, 0.128, 0.128, 0.128, 0.128, 0.128, 0.128, 0.128, 0.128, 0.128, 0.128, 0.128, 0.128, 0.128, 0.128, 0.128, 0.128, 0.128, 0.128, 0.128]",None,None,None,,,up,1.6140444990014657,None,31.71021633397322,31.71741874999134,31.987326417001896,31.962019875005353,31.980483749997802,31.987326417001896,,33.00092591700377,,32.994966291997116,0,-1,,,31.987326417001896,33.00092591700377,,,,,,,,,,,,,,,,,,,kahini,patients,A,2026-03-24_16h41.25.379,asymmetry_final,2024.2.4,120,2026-03-24 16h41.58.434959 -0400,
4,4,0,1,1,baseline,37,3.7,0.34,1.0,0.164,flat,flat_curv,0.0,0.0,-0.34,rew,input_data/stims/Shape_3.70_1.00.png,input_data/stims/Shape_4.00_2.00.png,input_data/stims/Shape_0.00_2.00.png,1,-1,1.0,-1.0,1,up,4.250499791000038,None,up,0.946328874968458,None,None,None,['left'],[0.6405920410179533],[0.8992705839918926],up,1.728761125006713,None,0,0,0,0,0,4,4,37,33.00092591700377,,,,,,,,,,,,,,,,,32.995834166998975,0.0008446249994449317,33.93780729197897,33.937855208991095,33.972509083978366,35.12771458399948,35.11604433396133,35.11626995896222,0.0002240000176243484,36.50822891696589,36.50948908395367,36.574857333966065,36.574857333966065,36.574857333966065,36.574857333966065,36.574857333966065,36.574857333966065,36.574857333966065,38.30719629197847,"[0.164, 0.164, 0.164, 0.164, 0.164, 0.164, 0.164, 0.164, 0.164, 0.164, 0.164, 0.164, 0.164, 0.164, 0.164, 0.164, 0.164, 0.164, 0.164, 0.164, 0.164, 0.164, 0.164, 0.164, 0.164, 0.164, 0.164, 0.164, 0.164, 0.164, 0.164, 0.164, 0.164, 0.164, 0.164, 0.164, 0.164, 0.164, 0.164, 0.164, 0.164, 0.164, 0.164, 0.164, 0.164, 0.164, 0.164, 0.164, 0.164, 0.164, 0.164, 0.164, 0.164, 0.164, 0.164, 0.164, 0.164, 0.164, 0.164, 0.16, 0.156, 0.152, 0.148, 0.144, 0.14, 0.136, 0.132, 0.128, 0.124, 0.12, 0.116, 0.112, 0.108, 0.104, 0.1, 0.096, 0.092, 0.088, 0.084, 0.08, 0.076, 0.072, 0.068, 0.064, 0.06, 0.056, 0.052, 0.048, 0.044, 0.04, 0.036, 0.032, 0.028, 0.024, 0.02, 0.016, 0.012, 0.008, 0.004, 0.0, -0.004, -0.008, -0.012, -0.016, -0.02, -0.024, -0.028, -0.032, -0.036, -0.04, -0.044, -0.048, -0.052, -0.056, -0.06, -0.064, -0.068, -0.072, -0.076, -0.08, -0.084, -0.088, -0.092, -0.096, -0.1, -0.104, -0.108, -0.112, -0.116, -0.12, -0.124, -0.124, -0.124, -0.124, -0.124, -0.124, -0.124, -0.124, -0.124, -0.124, -0.124, -0.124, -0.124, -0.124, -0.124, -0.124]",None,None,['left'],[0.6405920410179533],[0.8992705839918926],up,1.728761125006713,None,38.30773408396635,38.314509041956626,38.570530124998186,38.56198158400366,38.56367366696941,38.570530124998186,,39.57802812498994,,39.5680575419683,1,5,38.570530124998186,39.57802812498994,,,,,,,,,,,,,,,,,,,,,kahini,patients,A,2026-03-24_16h41.25.379,asymmetry_final,2024.2.4,120,2026-03-24 16h41.58.434959 -0400,
5,5,0,1,1,baseline,35,3.5,0.3,3.0,0.196,flat,flat_curv,0.0,0.0,-0.3,rew,input_data/stims/Shape_3.50_3.00.png,input_data/stims/Shape_4.00_2.00.png,input_data/stims/Shape_0.00_2.00.png,1,-1,1.0,1.0,1,up,4.250499791000038,None,up,0.946328874968458,None,None,None,['left'],[0.5396647910238244],[0.8392991659929976],up,1.4466971240472049,None,0,0,0,0,0,5,5,35,39.57802812498994,,,,,,,,,,,,,,,,,39.56891812500544,0.0008447919972240925,40.56090591696557,40.56095795898,40.60458824998932,41.76062845898559,41.75415208400227,41.754472583997995,0.00032424996607005596,43.14648887497606,43.14771687495522,43.20875020895619,43.20875020895619,43.20875020895619,43.20875020895619,43.20875020895619,43.20875020895619,43.20875020895619,44.66296266700374,"[0.196, 0.196, 0.196, 0.196, 0.196, 0.196, 0.196, 0.196, 0.196, 0.196, 0.196, 0.196, 0.196, 0.196, 0.196, 0.196, 0.196, 0.196, 0.196, 0.196, 0.196, 0.196, 0.196, 0.196, 0.196, 0.196, 0.196, 0.196, 0.196, 0.196, 0.196, 0.196, 0.196, 0.196, 0.196, 0.196, 0.196, 0.196, 0.196, 0.196, 0.196, 0.196, 0.196, 0.196, 0.196, 0.196, 0.196, 0.196, 0.196, 0.196, 0.196, 0.192, 0.188, 0.184, 0.18, 0.176, 0.172, 0.168, 0.164, 0.16, 0.156, 0.152, 0.148, 0.144, 0.14, 0.136, 0.132, 0.128, 0.124, 0.12, 0.116, 0.112, 0.108, 0.104, 0.1, 0.096, 0.092, 0.088, 0.084, 0.08, 0.076, 0.072, 0.068, 0.064, 0.06, 0.056, 0.052, 0.048, 0.044, 0.04, 0.036, 0.032, 0.028, 0.024, 0.02, 0.016, 0.012, 0.008, 0.004, 0.0, -0.004, -0.008, -0.012, -0.016, -0.02, -0.024, -0.028, -0.032, -0.036, -0.04, -0.044, -0.048, -0.052, -0.056, -0.06, -0.064, -0.068, -0.072, -0.072, -0.072, -0.072, -0.072, -0.072, -0.072, -0.072]",None,None,['left'],[0.5396647910238244],[0.8392991659929976],up,1.4466971240472049,None,44.66331154195359,44.66990049998276,44.9180632919888,44.91139608400408,44.91144529200392,44.9180632919888,,45.9279379589716,,45.918652958993334,1,5,44.9180632919888,45.9279379589716,,,,,,,,,,,,,,,,,,,,,kahini,patients,A,2026-03-24_16h41.25.379,asymmetry_final,2024.2.4,120,2026-03-24 16h41.58.434959 -0400,
6,6,0,1,1,baseline,38,3.9,0.38,3.0,-0.008,flat,curv_flat,0.0,0.0,0.38,rew,input_data/stims/Shape_3.90_3.00.png,input_data/stims/Shape_0.00_2.00.png,input_data/stims/Shape_4.00_2.00.png,1,1,-1.0,1.0,1,up,4.250499791000038,None,up,0.946328874968458,None,None,None,"['right', 'right']","[0.6631310830125585, 0.8784367080079392]","[0.10747837502276525, 0.08795762498630211]",up,1.246369249012787,None,0,0,0,0,0,6,6,38,45.9279379589716,,,,,,,,,,,,,,,,,45.91938133398071,0.0007300000288523734,46.81134504196234,46.81139612500556,46.84810841700528,48.13499349995982,48.12973466695985,48.130031499953475,0.0003231670125387609,49.52196574996924,49.52322979195742,49.58752145897597,49.58752145897597,49.58752145897597,49.58752145897597,49.58752145897597,49.58752145897597,49.58752145897597,50.84772404195974,"[-0.008, -0.008, -0.008, -0.008, -0.008, -0.008, -0.008, -0.008, -0.008, -0.008, -0.008, -0.008, -0.008, -0.008, -0.008, -0.008, -0.008, -0.008, -0.008, -0.008, -0.008, -0.008, -0.008, -0.008, -0.008, -0.008, -0.008, -0.008, -0.008, -0.008, -0.008, -0.008, -0.008, -0.008, -0.008, -0.008, -0.008, -0.008, -0.008, -0.008, -0.008, -0.008, -0.008, -0.008, -0.008, -0.008, -0.008, -0.008, -0.008, -0.008, -0.008, -0.008, -0.008, -0.008, -0.008, -0.008, -0.008, -0.008, -0.008, -0.008, -0.008, -0.008, -0.008, -0.004, 0.0, 0.004, 0.008, 0.012, 0.016, 0.02, 0.024, 0.028, 0.028, 0.028, 0.028, 0.028, 0.028, 0.028, 0.028, 0.028, 0.028, 0.028, 0.032, 0.036, 0.04, 0.044, 0.048, 0.052, 0.052, 0.052, 0.052, 0.052, 0.052, 0.052, 0.052, 0.052, 0.052, 0.052, 0.052, 0.052, 0.052, 0.052, 0.052, 0.052, 0.052, 0.052, 0.052, 0.052, 0.052, 0.052, 0.052, 0.052, 0.052]",None,None,"['right', 'right']","[0.6631310830125585, 0.8784367080079392]","[0.10747837502276525, 0.08795762498630211]",up,1.246369249012787,None,50.848370958992746,50.861360499984585,51.11025579198031,51.10124225000618,51.10135024995543,51.11025579198031,,52.14532120898366,,52.12922262499342,1,5,51.11025579198031,52.14532120898366,,,,,,,,,,,,,,,,,,,,,kahini,patients,A,2026-03-24_16h41.25.379,asymmetry_final,2024.2.4,120,2026-03-24 16h41.58.434959 -0400,
7,7,0,1,1,baseline,27,2.7,0.14,3.0,-0.324,flat,flat_curv,0.0,0.0,-0.14,rew,input_data/stims/Shape_2.70_3.00.png,input_data/stims/Shape_4.00_2.00.png,input_data/stims/Shape_0.00_2.00.png,1,-1,-1.0,1.0,1,up,4.250499791000038,None,up,0.946328874968458,None,None,None,['right'],[0.768222582002636],[0.8232502500177361],up,1.9054795820266008,None,0,0,0,0,0,7,7,27,52.14532120898366,,,,,,,,,,,,,,,,,52.13005266699474,0.0008142499718815088,53.221988999983296,53.22204587497981,53.25375258398708,54.61085258395178,54.60586566699203,54.6061062089866,0.0002501250128261745,56.09805787500227,56.099257624999154,56.160935708961915,56.160935708961915,56.160935708961915,56.160935708961915,56.160935708961915,56.160935708961915,56.160935708961915,58.078594583959784,"[-0.324, -0.324, -0.324, -0.324, -0.324, -0.324, -0.324, -0.324, -0.324, -0.324, -0.324, -0.324, -0.324, -0.324, -0.324, -0.324, -0.324, -0.324, -0.324, -0.324, -0.324, -0.324, -0.324, -0.324, -0.324, -0.324, -0.324, -0.324, -0.324, -0.324, -0.324, -0.324, -0.324, -0.324, -0.324, -0.324, -0.324, -0.324, -0.324, -0.324, -0.324, -0.324, -0.324, -0.324, -0.324, -0.324, -0.324, -0.324, -0.324, -0.324, -0.324, -0.324, -0.324, -0.324, -0.324, -0.324, -0.324, -0.324, -0.324, -0.324, -0.324, -0.324, -0.324, -0.324, -0.324, -0.324, -0.324, -0.324, -0.324, -0.32, -0.316, -0.312, -0.308, -0.304, -0.3, -0.296, -0.292, -0.288, -0.284, -0.28, -0.276, -0.272, -0.268, -0.264, -0.26, -0.256, -0.252, -0.248, -0.244, -0.24, -0.236, -0.232, -0.228, -0.224, -0.22, -0.216, -0.212, -0.208, -0.204, -0.2, -0.196, -0.192, -0.188, -0.184, -0.18, -0.176, -0.172, -0.168, -0.164, -0.16, -0.156, -0.152, -0.148, -0.144, -0.14, -0.136, -0.132, -0.128, -0.124, -0.12, -0.116, -0.112, -0.108, -0.104, -0.1, -0.096, -0.092, -0.088, -0.084, -0.08, -0.076, -0.072, -0.068, -0.064, -0.06, -0.056, -0.052, -0.052, -0.052, -0.052, -0.052, -0.052, -0.052, -0.052, -0.052, -0.052, -0.052, -0.052, -0.052, -0.052, -0.052, -0.052, -0.052, -0.052, -0.052, -0.052, -0.052, -0.052, -0.052, -0.052, -0.052, -0.052, -0.052, -0.052, -0.052]",None,None,['right'],[0.768222582002636],[0.8232502500177361],up,1.9054795820266008,None,58.07905762497103,58.08655516698491,58.33588829200016,58.32878033397719,58.32891291700071,58.33588829200016,,59.336179042002186,,59.32938483398175,1,5,58.33588829200016,59.336179042002186,,,,,,,,,,,,,,,,,,,,,kahini,patients,A,2026-03-24_16h41.25.379,asymmetry_final,2024.2.4,120,2026-03-24 16h41.58.434959 -0400,
8,8,0,1,1,baseline,28,2.9,0.18,1.0,0.38,flat,curv_flat,0.0,0.0,0.18,rew,input_data/stims/Shape_2.90_1.00.png,input_data/stims/Shape_0.00_2.00.png,input_data/stims/Shape_4.00_2.00.png,1,1,1.0,-1.0,1,up,4.250499791000038,None,up,0.946328874968458,None,None,None,"['left', 'left', 'right']","[0.8210315410397016, 2.0355792500195093, 2.699127791041974]","[0.9311587499687448, 0.312015000032261, 0.12419191701337695]",up,3.085546125017572,None,0,0,0,0,0,8,8,28,59.336179042002186,,,,,,,,,,,,,,,,,59.330354624951724,0.0009500409942120314,60.22232579195406,60.22237708396278,60.255572249996476,61.612470374966506,61.596633167006075,61.5968896249542,0.00026470801094546914,63.03880266699707,63.04005191696342,63.101663999957964,63.101663999957964,63.101663999957964,63.101663999957964,63.101663999957964,63.101663999957964,63.101663999957964,66.20250766695244,"[0.38, 0.38, 0.38, 0.38, 0.38, 0.38, 0.38, 0.38, 0.38, 0.38, 0.38, 0.38, 0.38, 0.38, 0.38, 0.38, 0.38, 0.38, 0.38, 0.38, 0.38, 0.38, 0.38, 0.38, 0.38, 0.38, 0.38, 0.38, 0.38, 0.38, 0.38, 0.38, 0.38, 0.38, 0.38, 0.38, 0.38, 0.38, 0.38, 0.38, 0.38, 0.38, 0.38, 0.38, 0.38, 0.38, 0.38, 0.38, 0.38, 0.38, 0.38, 0.38, 0.38, 0.38, 0.38, 0.38, 0.38, 0.38, 0.38, 0.38, 0.38, 0.38, 0.38, 0.38, 0.38, 0.38, 0.38, 0.38, 0.38, 0.38, 0.376, 0.372, 0.368, 0.364, 0.36, 0.356, 0.352, 0.348, 0.344, 0.34, 0.336, 0.332, 0.328, 0.324, 0.32, 0.316, 0.312, 0.308, 0.304, 0.3, 0.296, 0.292, 0.288, 0.284, 0.28, 0.276, 0.272, 0.268, 0.264, 0.26, 0.256, 0.252, 0.248, 0.244, 0.24, 0.236, 0.232, 0.228, 0.224, 0.22, 0.216, 0.212, 0.208, 0.204, 0.2, 0.196, 0.192, 0.188, 0.184, 0.18, 0.176, 0.172, 0.168, 0.164, 0.16, 0.156, 0.152, 0.148, 0.144, 0.14, 0.136, 0.132, 0.128, 0.124, 0.12, 0.116, 0.112, 0.108, 0.104, 0.1, 0.096, 0.092, 0.088, 0.088, 0.088, 0.088, 0.088, 0.088, 0.088, 0.088, 0.088, 0.088, 0.088, 0.088, 0.088, 0.088, 0.088, 0.088, 0.088, 0.088, 0.088, 0.088, 0.088, 0.088, 0.088, 0.088, 0.088, 0.088, 0.088, 0.088, 0.084, 0.08, 0.076, 0.072, 0.068, 0.064, 0.06, 0.056, 0.052, 0.048, 0.044, 0.04, 0.036, 0.032, 0.028, 0.024, 0.02, 0.016, 0.012, 0.008, 0.004, 0.0, -0.004, -0.008, -0.008, -0.008, -0.008, -0.008, -0.008, -0.008, -0.008, -0.008, -0.008, -0.008, -0.008, -0.008, -0.008, -0.008, -0.008, -0.008, -0.008, -0.008, -0.008, -0.008, -0.008, -0.008, -0.008, -0.008, -0.008, -0.008, -0.008, -0.008, -0.008, -0.008, -0.008, -0.008, -0.008, -0.004, 0.0, 0.004, 0.008, 0.012, 0.016, 0.02, 0.024, 0.028, 0.028, 0.028, 0.028, 0.028, 0.028, 0.028, 0.028, 0.028, 0.028, 0.028, 0.028, 0.028, 0.028, 0.028, 0.028, 0.028, 0.028, 0.028, 0.028, 0.028, 0.028, 0.028, 0.028, 0.028, 0.028]",None,None,"['left', 'left', 'right']","[0.8210315410397016, 2.0355792500195093, 2.699127791041974]","[0.9311587499687448, 0.312015000032261, 0.12419191701337695]",up,3.085546125017572,None,66.20307887496892,66.21080208395142,66.46938658400904,66.46267133398214,66.46279699995648,66.46938658400904,,67.52839645900531,,67.51701033400605,1,5,66.46938658400904,67.52839645900531,,,,,,,,,,,,,,,,,,,,,kahini,patients,A,2026-03-24_16h41.25.379,asymmetry_final,2024.2.4,120,2026-03-24 16h41.58.434959 -0400,
9,9,0,1,1,baseline,5,0.5,-0.3,1.0,-0.124,curv,flat_curv,0.0,0.0,0.3,pen,input_data/stims/Shape_0.50_1.00.png,input_data/stims/Shape_4.00_2.00.png,input_data/stims/Shape_0.00_2.00.png,-1,-1,-1.0,-1.0,-1,up,4.250499791000038,None,up,0.946328874968458,None,None,None,['right'],[0.5408832079847343],[0.6792395830270834],up,1.4820737909758464,None,0,0,0,0,0,9,9,5,67.52839645900531,,,,,,,,,,,,,,,,,67.51780349999899,0.0007702920120209455,68.4097247919999,68.40977425000165,68.44214920897502,69.80192070896737,69.79627945896937,69.79662874998758,0.00035745796049013734,71.1385349589982,71.13980383396847,71.206727458979,71.206727458979,71.206727458979,71.206727458979,71.206727458979,71.206727458979,71.206727458979,72.69964187499136,"[-0.124, -0.124, -0.124, -0.124, -0.124, -0.124, -0.124, -0.124, -0.124, -0.124, -0.124, -0.124, -0.124, -0.124, -0.124, -0.124, -0.124, -0.124, -0.124, -0.124, -0.124, -0.124, -0.124, -0.124, -0.124, -0.124, -0.124, -0.124, -0.124, -0.124, -0.124, -0.124, -0.124, -0.124, -0.124, -0.124, -0.124, -0.124, -0.124, -0.124, -0.124, -0.124, -0.124, -0.124, -0.124, -0.124, -0.124, -0.12, -0.116, -0.112, -0.108, -0.104, -0.1, -0.096, -0.092, -0.088, -0.084, -0.08, -0.076, -0.072, -0.068, -0.064, -0.06, -0.056, -0.052, -0.048, -0.044, -0.04, -0.036, -0.032, -0.028, -0.024, -0.02, -0.016, -0.012, -0.008, -0.004, 0.0, 0.004, 0.008, 0.012, 0.016, 0.02, 0.024, 0.028, 0.032, 0.036, 0.04, 0.044, 0.048, 0.052, 0.056, 0.06, 0.064, 0.068, 0.072, 0.076, 0.08, 0.084, 0.088, 0.088, 0.088, 0.088, 0.088, 0.088, 0.088, 0.088, 0.088, 0.088, 0.088, 0.088, 0.088, 0.088, 0.088, 0.088, 0.088, 0.088, 0.088, 0.088, 0.088, 0.088, 0.088, 0.088, 0.088, 0.088]",None,None,['right'],[0.5408832079847343],[0.6792395830270834],up,1.4820737909758464,None,72.70012599998154,72.70701099996222,72.97830824996345,72.96729537495412,72.96741995896446,72.97830824996345,72.97830824996345,73.97836070897756,73.97836070897756,73.96832662500674,1,1,,,,,,,,,,,,,,,,,,,,,,,kahini,patients,A,2026-03-24_16h41.25.379,asymmetry_final,2024.2.4,120,2026-03-24 16h41.58.434959 -0400,
10,10,0,1,1,baseline,34,3.5,0.3,1.0,-0.048,flat,curv_flat,0.0,0.0,0.3,rew,input_data/stims/Shape_3.50_1.00.png,input_data/stims/Shape_0.00_2.00.png,input_data/stims/Shape_4.00_2.00.png,1,1,-1.0,-1.0,1,up,4.250499791000038,None,up,0.946328874968458,None,None,None,"['right', 'right', 'right', 'right', 'right']","[0.5394929990288801, 0.8544124990003183, 1.0917112080496736, 1.298870541038923, 1.5735501660383306]","[0.16358258400578052, 0.1040607500472106, 0.0759556659613736, 0.15600420796545222, None]",up,1.6536909160204232,None,0,0,0,0,0,10,10,34,73.97836070897756,,,,,,,,,,,,,,,,,73.96880345896352,0.0004641659907065332,74.86065208399668,74.86069604195654,74.89388950000284,76.06219283398241,76.05499724997208,76.05528499995125,0.00028633297188207507,77.54725604195846,77.54858441697434,77.61280970898224,77.61280970898224,77.61280970898224,77.61280970898224,77.61280970898224,77.61280970898224,77.61280970898224,79.2812376669608,"[-0.048, -0.048, -0.048, -0.048, -0.048, -0.048, -0.048, -0.048, -0.048, -0.048, -0.048, -0.048, -0.048, -0.048, -0.048, -0.048, -0.048, -0.048, -0.048, -0.048, -0.048, -0.048, -0.048, -0.048, -0.048, -0.048, -0.048, -0.048, -0.048, -0.048, -0.048, -0.048, -0.048, -0.048, -0.048, -0.048, -0.048, -0.048, -0.048, -0.048, -0.048, -0.048, -0.048, -0.048, -0.048, -0.048, -0.048, -0.048, -0.048, -0.048, -0.048, -0.044, -0.04, -0.036, -0.032, -0.028, -0.024, -0.02, -0.016, -0.012, -0.008, -0.008, -0.008, -0.008, -0.008, -0.008, -0.008, -0.008, -0.008, -0.008, -0.008, -0.008, -0.004, 0.0, 0.004, 0.008, 0.012, 0.016, 0.016, 0.016, 0.016, 0.016, 0.016, 0.016, 0.016, 0.016, 0.016, 0.016, 0.02, 0.024, 0.028, 0.032, 0.036, 0.04, 0.04, 0.04, 0.04, 0.04, 0.04, 0.04, 0.04, 0.04, 0.04, 0.04, 0.04, 0.04, 0.04, 0.04, 0.044, 0.048, 0.052, 0.056, 0.06, 0.064, 0.068, 0.072, 0.076, 0.08, 0.084, 0.088, 0.088, 0.088, 0.088, 0.088, 0.088, 0.088, 0.088, 0.088, 0.088, 0.088, 0.088, 0.088, 0.092, 0.096, 0.1, 0.104, 0.108, 0.112, 0.116, 0.12]",None,None,"['right', 'right', 'right', 'right', 'right']","[0.5394929990288801, 0.8544124990003183, 1.0917112080496736, 1.298870541038923, 1.5735501660383306]","[0.16358258400578052, 0.1040607500472106, 0.0759556659613736, 0.15600420796545222, None]",up,1.6536909160204232,None,79.28160399995977,79.28598183399299,79.53650316700805,79.52931529196212,79.52942683396395,79.53650316700805,,80.56950237497222,,80.56265512498794,1,5,79.53650316700805,80.56950237497222,,,,,,,,,,,,,,,,,,,,,kahini,patients,A,2026-03-24_16h41.25.379,asymmetry_final,2024.2.4,120,2026-03-24 16h41.58.434959 -0400,
11,11,0,1,1,baseline,4,0.5,-0.3,1.0,0.124,curv,curv_flat,0.0,0.0,-0.3,pen,input_data/stims/Shape_0.50_1.00.png,input_data/stims/Shape_0.00_2.00.png,input_data/stims/Shape_4.00_2.00.png,-1,1,1.0,-1.0,-1,up,4.250499791000038,None,up,0.946328874968458,None,None,None,['left'],[0.5134522910229862],[0.7390095409937203],up,1.5915772069711238,None,0,0,0,0,0,11,11,4,80.56950237497222,,,,,,,,,,,,,,,,,80.56341424997663,0.0007485839887522161,81.55535995896207,81.55541491700569,81.58799945900682,82.66091462498298,82.65547687496291,82.65579812496435,0.00031808397034183145,84.14776983397314,84.1489828339545,84.21160408400465,84.21160408400465,84.21160408400465,84.21160408400465,84.21160408400465,84.21160408400465,84.21160408400465,85.80721249995986,"[0.124, 0.124, 0.124, 0.124, 0.124, 0.124, 0.124, 0.124, 0.124, 0.124, 0.124, 0.124, 0.124, 0.124, 0.124, 0.124, 0.124, 0.124, 0.124, 0.124, 0.124, 0.124, 0.124, 0.124, 0.124, 0.124, 0.124, 0.124, 0.124, 0.124, 0.124, 0.124, 0.124, 0.124, 0.124, 0.124, 0.124, 0.124, 0.124, 0.124, 0.124, 0.124, 0.124, 0.124, 0.124, 0.124, 0.124, 0.124, 0.12, 0.116, 0.112, 0.108, 0.104, 0.1, 0.096, 0.092, 0.088, 0.084, 0.08, 0.076, 0.072, 0.068, 0.064, 0.06, 0.056, 0.052, 0.048, 0.044, 0.04, 0.036, 0.032, 0.028, 0.024, 0.02, 0.016, 0.012, 0.008, 0.004, 0.0, -0.004, -0.008, -0.012, -0.016, -0.02, -0.024, -0.028, -0.032, -0.036, -0.04, -0.044, -0.048, -0.052, -0.056, -0.06, -0.064, -0.068, -0.072, -0.076, -0.08, -0.084, -0.088, -0.092, -0.096, -0.1, -0.104, -0.108, -0.108, -0.108, -0.108, -0.108, -0.108, -0.108, -0.108, -0.108, -0.108, -0.108, -0.108, -0.108, -0.108, -0.108, -0.108, -0.108, -0.108, -0.108, -0.108, -0.108, -0.108, -0.108, -0.108, -0.108, -0.108, -0.108, -0.108, -0.108]",None,None,['left'],[0.5134522910229862],[0.7390095409937203],up,1.5915772069711238,None,85.80765716696624,85.81562191696139,86.07043424999574,86.06273212499218,86.06285320897587,86.07043424999574,86.07043424999574,87.07879262499046,87.07879262499046,87.06902679195628,1,1,,,,,,,,,,,,,,,,,,,,,,,kahini,patients,A,2026-03-24_16h41.25.379,asymmetry_final,2024.2.4,120,2026-03-24 16h41.58.434959 -0400,
12,12,0,1,1,baseline,14,1.5,-0.1,3.0,-0.34,curv,curv_flat,0.0,0.0,-0.1,pen,input_data/stims/Shape_1.50_3.00.png,input_data/stims/Shape_0.00_2.00.png,input_data/stims/Shape_4.00_2.00.png,-1,1,-1.0,1.0,-1,up,4.250499791000038,None,up,0.946328874968458,None,None,None,['right'],[0.8158851659973152],[0.867231999989599],up,1.8248234159545973,None,0,0,0,0,0,12,12,14,87.07879262499046,,,,,,,,,,,,,,,,,87.06959570897743,0.0005563750164583325,87.96156308398349,87.96161537495209,87.99829891696572,89.1277789589949,89.122339249996,89.12264004198369,0.00031329202465713024,90.46458720898954,90.4658548340085,90.5331141249626,90.5331141249626,90.5331141249626,90.5331141249626,90.5331141249626,90.5331141249626,90.5331141249626,92.36471987498226,"[-0.34, -0.34, -0.34, -0.34, -0.34, -0.34, -0.34, -0.34, -0.34, -0.34, -0.34, -0.34, -0.34, -0.34, -0.34, -0.34, -0.34, -0.34, -0.34, -0.34, -0.34, -0.34, -0.34, -0.34, -0.34, -0.34, -0.34, -0.34, -0.34, -0.34, -0.34, -0.34, -0.34, -0.34, -0.34, -0.34, -0.34, -0.34, -0.34, -0.34, -0.34, -0.34, -0.34, -0.34, -0.34, -0.34, -0.34, -0.34, -0.34, -0.34, -0.34, -0.34, -0.34, -0.34, -0.34, -0.34, -0.34, -0.34, -0.34, -0.34, -0.34, -0.34, -0.34, -0.34, -0.34, -0.34, -0.34, -0.34, -0.34, -0.34, -0.34, -0.34, -0.34, -0.34, -0.336, -0.332, -0.328, -0.324, -0.32, -0.316, -0.312, -0.308, -0.304, -0.3, -0.296, -0.292, -0.288, -0.284, -0.28, -0.276, -0.272, -0.268, -0.264, -0.26, -0.256, -0.252, -0.248, -0.244, -0.24, -0.236, -0.232, -0.228, -0.224, -0.22, -0.216, -0.212, -0.208, -0.204, -0.2, -0.196, -0.192, -0.188, -0.184, -0.18, -0.176, -0.172, -0.168, -0.164, -0.16, -0.156, -0.152, -0.148, -0.144, -0.14, -0.136, -0.132, -0.128, -0.124, -0.12, -0.116, -0.112, -0.108, -0.104, -0.1, -0.096, -0.092, -0.088, -0.084, -0.08, -0.076, -0.072, -0.068, -0.064, -0.06, -0.056, -0.056, -0.056, -0.056, -0.056, -0.056, -0.056, -0.056, -0.056, -0.056, -0.056, -0.056, -0.056, -0.056, -0.056]",None,None,['right'],[0.8158851659973152],[0.867231999989599],up,1.8248234159545973,None,92.36517608398572,92.37263516697567,92.61928349995287,92.61244587495457,92.61254291696241,92.61928349995287,92.61928349995287,93.6183899169555,93.6183899169555,93.61249787500128,1,1,,,,,,,,,,,,,,,,,,,,,,,kahini,patients,A,2026-03-24_16h41.25.379,asymmetry_final,2024.2.4,120,2026-03-24 16h41.58.434959 -0400,
13,13,0,1,1,baseline,33,3.3,0.26,3.0,-0.176,flat,flat_curv,0.0,0.0,-0.26,rew,input_data/stims/Shape_3.30_3.00.png,input_data/stims/Shape_4.00_2.00.png,input_data/stims/Shape_0.00_2.00.png,1,-1,-1.0,1.0,1,up,4.250499791000038,None,up,0.946328874968458,None,None,None,"['right', 'left']","[0.5824249159777537, 1.466676665993873]","[0.6794043330010027, 0.3840197499957867]",up,2.506177040981129,None,0,0,0,0,0,13,13,33,93.6183899169555,,,,,,,,,,,,,,,,,93.61323570896639,0.0007265839958563447,94.65524162497604,94.65529687498929,94.68687904195394,95.77894099999685,95.76216158398893,95.76241841696901,0.0002654169802553952,97.05440345895477,97.0555970419664,97.1160104169976,97.1160104169976,97.1160104169976,97.1160104169976,97.1160104169976,97.1160104169976,97.1160104169976,99.62440066697309,"[-0.176, -0.176, -0.176, -0.176, -0.176, -0.176, -0.176, -0.176, -0.176, -0.176, -0.176, -0.176, -0.176, -0.176, -0.176, -0.176, -0.176, -0.176, -0.176, -0.176, -0.176, -0.176, -0.176, -0.176, -0.176, -0.176, -0.176, -0.176, -0.176, -0.176, -0.176, -0.176, -0.176, -0.176, -0.176, -0.176, -0.176, -0.176, -0.176, -0.176, -0.176, -0.176, -0.176, -0.176, -0.176, -0.176, -0.176, -0.176, -0.176, -0.176, -0.176, -0.176, -0.176, -0.176, -0.176, -0.176, -0.176, -0.172, -0.168, -0.164, -0.16, -0.156, -0.152, -0.148, -0.144, -0.14, -0.136, -0.132, -0.128, -0.124, -0.12, -0.116, -0.112, -0.108, -0.104, -0.1, -0.096, -0.092, -0.088, -0.084, -0.08, -0.076, -0.072, -0.068, -0.064, -0.06, -0.056, -0.052, -0.048, -0.044, -0.04, -0.036, -0.032, -0.028, -0.024, -0.02, -0.016, -0.012, -0.008, -0.004, 0.0, 0.004, 0.008, 0.012, 0.016, 0.02, 0.024, 0.028, 0.032, 0.036, 0.04, 0.044, 0.044, 0.044, 0.044, 0.044, 0.044, 0.044, 0.044, 0.044, 0.044, 0.044, 0.044, 0.044, 0.044, 0.044, 0.044, 0.044, 0.044, 0.04, 0.036, 0.032, 0.028, 0.024, 0.02, 0.016, 0.012, 0.008, 0.004, 0.0, -0.004, -0.008, -0.012, -0.016, -0.02, -0.024, -0.028, -0.032, -0.036, -0.04, -0.044, -0.048, -0.052, -0.056, -0.06, -0.064, -0.068, -0.072, -0.076, -0.08, -0.084, -0.088, -0.088, -0.088, -0.088, -0.088, -0.088, -0.088, -0.088, -0.088, -0.088, -0.088, -0.088, -0.088, -0.088, -0.088, -0.088, -0.088, -0.088, -0.088, -0.088, -0.088, -0.088, -0.088, -0.088, -0.088, -0.088, -0.088, -0.088, -0.088, -0.088, -0.088, -0.088, -0.088, -0.088, -0.088, -0.088, -0.088, -0.088, -0.088, -0.088, -0.088, -0.088, -0.088, -0.088, -0.088, -0.088, -0.088, -0.088, -0.088, -0.088, -0.088, -0.088, -0.088, -0.088, -0.088]",None,None,"['right', 'left']","[0.5824249159777537, 1.466676665993873]","[0.6794043330010027, 0.3840197499957867]",up,2.506177040981129,None,99.62491241696989,99.6316859590006,99.8866636249586,99.87958499998786,99.87971779197687,99.8866636249586,,100.88588829198852,,100.87930041697109,1,5,99.8866636249586,100.88588829198852,,,,,,,,,,,,,,,,,,,,,kahini,patients,A,2026-03-24_16h41.25.379,asymmetry_final,2024.2.4,120,2026-03-24 16h41.58.434959 -0400,
14,14,0,1,1,baseline,24,2.5,0.1,3.0,0.356,flat,curv_flat,0.0,0.0,0.1,rew,input_data/stims/Shape_2.50_3.00.png,input_data/stims/Shape_0.00_2.00.png,input_data/stims/Shape_4.00_2.00.png,1,1,1.0,1.0,1,up,4.250499791000038,None,up,0.946328874968458,None,None,None,['left'],[1.0326020409702323],[1.0073205000371672],up,2.19147337495815,None,0,0,0,0,0,14,14,24,100.88588829198852,,,,,,,,,,,,,,,,,100.88012254197383,0.0008136669639497995,101.82214529195335,101.82219974999316,101.85917266696924,103.13473308400717,103.12923733395291,103.12957024999196,0.0003411250072531402,104.47149566700682,104.47271562495735,104.53592558397213,104.53592558397213,104.53592558397213,104.53592558397213,104.53592558397213,104.53592558397213,104.53592558397213,106.73783995897975,"[0.356, 0.356, 0.356, 0.356, 0.356, 0.356, 0.356, 0.356, 0.356, 0.356, 0.356, 0.356, 0.356, 0.356, 0.356, 0.356, 0.356, 0.356, 0.356, 0.356, 0.356, 0.356, 0.356, 0.356, 0.356, 0.356, 0.356, 0.356, 0.356, 0.356, 0.356, 0.356, 0.356, 0.356, 0.356, 0.356, 0.356, 0.356, 0.356, 0.356, 0.356, 0.356, 0.356, 0.356, 0.356, 0.356, 0.356, 0.356, 0.356, 0.356, 0.356, 0.356, 0.356, 0.356, 0.356, 0.356, 0.356, 0.356, 0.356, 0.356, 0.356, 0.356, 0.356, 0.356, 0.356, 0.356, 0.356, 0.356, 0.356, 0.356, 0.356, 0.356, 0.356, 0.356, 0.356, 0.356, 0.356, 0.356, 0.356, 0.356, 0.356, 0.356, 0.356, 0.356, 0.356, 0.356, 0.356, 0.356, 0.356, 0.356, 0.356, 0.356, 0.356, 0.356, 0.356, 0.356, 0.352, 0.348, 0.344, 0.34, 0.336, 0.332, 0.328, 0.324, 0.32, 0.316, 0.312, 0.308, 0.304, 0.3, 0.296, 0.292, 0.288, 0.284, 0.28, 0.276, 0.272, 0.268, 0.264, 0.26, 0.256, 0.252, 0.248, 0.244, 0.24, 0.236, 0.232, 0.228, 0.224, 0.22, 0.216, 0.212, 0.208, 0.204, 0.2, 0.196, 0.192, 0.188, 0.184, 0.18, 0.176, 0.172, 0.168, 0.164, 0.16, 0.156, 0.152, 0.148, 0.144, 0.14, 0.136, 0.132, 0.128, 0.124, 0.12, 0.116, 0.112, 0.108, 0.104, 0.1, 0.096, 0.092, 0.088, 0.084, 0.08, 0.076, 0.072, 0.068, 0.064, 0.06, 0.056, 0.052, 0.048, 0.048, 0.048, 0.048, 0.048, 0.048, 0.048, 0.048, 0.048, 0.048, 0.048, 0.048]",None,None,['left'],[1.0326020409702323],[1.0073205000371672],up,2.19147337495815,None,106.73830862500472,106.76174950000132,107.02003308397252,107.01307245896896,107.013199042005,107.02003308397252,,108.0288445839542,,108.01820554200094,1,5,107.02003308397252,108.0288445839542,,,,,,,,,,,,,,,,,,,,,kahini,patients,A,2026-03-24_16h41.25.379,asymmetry_final,2024.2.4,120,2026-03-24 16h41.58.434959 -0400,
15,15,0,1,1,baseline,20,2.1,0.02,1.0,0.368,flat,curv_flat,0.0,0.0,0.02,rew,input_data/stims/Shape_2.10_1.00.png,input_data/stims/Shape_0.00_2.00.png,input_data/stims/Shape_4.00_2.00.png,1,1,1.0,-1.0,1,up,4.250499791000038,None,up,0.946328874968458,None,None,None,"['left', 'left', 'right']","[0.6425400820444338, 1.977401374024339, 2.635330416029319]","[0.9751748339622281, 0.41603208298329264, 0.2959642909700051]",up,3.0845250409911387,None,0,0,0,0,0,15,15,20,108.0288445839542,,,,,,,,,,,,,,,,,108.01908366696443,0.0008613750105723739,108.96104887500405,108.96110516699264,108.9927412919933,110.10181820899015,110.09620612498838,110.09643554198556,0.00023629097267985344,111.53836470900569,111.53960862499662,111.5999709169846,111.5999709169846,111.5999709169846,111.5999709169846,111.5999709169846,111.5999709169846,111.5999709169846,114.7002059170045,"[0.368, 0.368, 0.368, 0.368, 0.368, 0.368, 0.368, 0.368, 0.368, 0.368, 0.368, 0.368, 0.368, 0.368, 0.368, 0.368, 0.368, 0.368, 0.368, 0.368, 0.368, 0.368, 0.368, 0.368, 0.368, 0.368, 0.368, 0.368, 0.368, 0.368, 0.368, 0.368, 0.368, 0.368, 0.368, 0.368, 0.368, 0.368, 0.368, 0.368, 0.368, 0.368, 0.368, 0.368, 0.368, 0.368, 0.368, 0.368, 0.368, 0.368, 0.368, 0.368, 0.368, 0.368, 0.368, 0.368, 0.368, 0.364, 0.36, 0.356, 0.352, 0.348, 0.344, 0.34, 0.336, 0.332, 0.328, 0.324, 0.32, 0.316, 0.312, 0.308, 0.304, 0.3, 0.296, 0.292, 0.288, 0.284, 0.28, 0.276, 0.272, 0.268, 0.264, 0.26, 0.256, 0.252, 0.248, 0.244, 0.24, 0.236, 0.232, 0.228, 0.224, 0.22, 0.216, 0.212, 0.208, 0.204, 0.2, 0.196, 0.192, 0.188, 0.184, 0.18, 0.176, 0.172, 0.168, 0.164, 0.16, 0.156, 0.152, 0.148, 0.144, 0.14, 0.136, 0.132, 0.128, 0.124, 0.12, 0.116, 0.112, 0.108, 0.104, 0.1, 0.096, 0.092, 0.088, 0.084, 0.08, 0.076, 0.072, 0.068, 0.064, 0.06, 0.06, 0.06, 0.06, 0.06, 0.06, 0.06, 0.06, 0.06, 0.06, 0.06, 0.06, 0.06, 0.06, 0.06, 0.06, 0.06, 0.06, 0.06, 0.06, 0.06, 0.06, 0.06, 0.06, 0.06, 0.06, 0.06, 0.06, 0.06, 0.06, 0.06, 0.06, 0.06, 0.06, 0.06, 0.056, 0.052, 0.048, 0.044, 0.04, 0.036, 0.032, 0.028, 0.024, 0.02, 0.016, 0.012, 0.008, 0.004, 0.0, -0.004, -0.008, -0.012, -0.016, -0.02, -0.024, -0.028, -0.032, -0.036, -0.04, -0.044, -0.048, -0.052, -0.056, -0.06, -0.064, -0.064, -0.064, -0.064, -0.064, -0.064, -0.064, -0.064, -0.064, -0.064, -0.064, -0.064, -0.064, -0.064, -0.064, -0.064, -0.064, -0.064, -0.064, -0.064, -0.064, -0.064, -0.06, -0.056, -0.052, -0.048, -0.044, -0.04, -0.036, -0.032, -0.028, -0.024, -0.02, -0.016, -0.012, -0.008, -0.004, 0.0, 0.004, 0.008, 0.012, 0.016, 0.02, 0.024, 0.028, 0.032, 0.036, 0.036, 0.036, 0.036, 0.036, 0.036, 0.036, 0.036, 0.036, 0.036, 0.036, 0.036, 0.036, 0.036, 0.036, 0.036, 0.036]",None,None,"['left', 'left', 'right']","[0.6425400820444338, 1.977401374024339, 2.635330416029319]","[0.9751748339622281, 0.41603208298329264, 0.2959642909700051]",up,3.0845250409911387,None,114.70076162496116,114.70559820899507,114.95290420897072,114.94630295899697,114.94641291699372,114.95290420897072,,115.9948968749959,,115.9862052089884,1,5,114.95290420897072,115.9948968749959,,,,,,,,,,,,,,,,,,,,,kahini,patients,A,2026-03-24_16h41.25.379,asymmetry_final,2024.2.4,120,2026-03-24 16h41.58.434959 -0400,
16,16,0,1,1,baseline,16,1.7,-0.06,1.0,0.288,curv,curv_flat,0.0,0.0,-0.06,pen,input_data/stims/Shape_1.70_1.00.png,input_data/stims/Shape_0.00_2.00.png,input_data/stims/Shape_4.00_2.00.png,-1,1,1.0,-1.0,-1,up,4.250499791000038,None,up,0.946328874968458,None,None,None,"['left', 'left']","[0.6716932490235195, 1.6245657079853117]","[0.6192262499826029, 0.1280634580180049]",up,2.111144291004166,None,0,0,0,0,0,16,16,16,115.9948968749959,,,,,,,,,,,,,,,,,115.9871119169984,0.0008745829691179097,116.97903191699879,116.97909662500024,117.0119042089791,118.09468312497484,118.08810158399865,118.08839616697514,0.00029266701312735677,119.38031229196349,119.38168220897205,119.44591941696126,119.44591941696126,119.44591941696126,119.44591941696126,119.44591941696126,119.44591941696126,119.44591941696126,121.56464724999387,"[0.288, 0.288, 0.288, 0.288, 0.288, 0.288, 0.288, 0.288, 0.288, 0.288, 0.288, 0.288, 0.288, 0.288, 0.288, 0.288, 0.288, 0.288, 0.288, 0.288, 0.288, 0.288, 0.288, 0.288, 0.288, 0.288, 0.288, 0.288, 0.288, 0.288, 0.288, 0.288, 0.288, 0.288, 0.288, 0.288, 0.288, 0.288, 0.288, 0.288, 0.288, 0.288, 0.288, 0.288, 0.288, 0.288, 0.288, 0.288, 0.288, 0.288, 0.288, 0.288, 0.288, 0.288, 0.288, 0.284, 0.28, 0.276, 0.272, 0.268, 0.264, 0.26, 0.256, 0.252, 0.248, 0.244, 0.24, 0.236, 0.232, 0.228, 0.224, 0.22, 0.216, 0.212, 0.208, 0.204, 0.2, 0.196, 0.192, 0.188, 0.184, 0.18, 0.176, 0.172, 0.168, 0.164, 0.16, 0.156, 0.152, 0.148, 0.144, 0.14, 0.136, 0.132, 0.128, 0.124, 0.12, 0.116, 0.112, 0.108, 0.104, 0.1, 0.096, 0.092, 0.088, 0.084, 0.08, 0.08, 0.08, 0.08, 0.08, 0.08, 0.08, 0.08, 0.08, 0.08, 0.08, 0.08, 0.08, 0.08, 0.08, 0.08, 0.08, 0.08, 0.08, 0.08, 0.08, 0.08, 0.08, 0.08, 0.08, 0.08, 0.08, 0.08, 0.076, 0.072, 0.068, 0.064, 0.06, 0.056, 0.052, 0.048, 0.044, 0.044, 0.044, 0.044, 0.044, 0.044, 0.044, 0.044, 0.044, 0.044, 0.044, 0.044, 0.044, 0.044, 0.044, 0.044, 0.044, 0.044, 0.044, 0.044, 0.044, 0.044, 0.044, 0.044, 0.044, 0.044, 0.044, 0.044, 0.044, 0.044, 0.044, 0.044, 0.044]",None,None,"['left', 'left']","[0.6716932490235195, 1.6245657079853117]","[0.6192262499826029, 0.1280634580180049]",up,2.111144291004166,None,121.56514362496091,121.57909158396069,121.82815316697815,121.81827124999836,121.81837875000201,121.82815316697815,,122.82940729195252,,122.81888141698437,0,-5,,,,,121.82815316697815,122.82940729195252,,,,,,,,,,,,,,,,,kahini,patients,A,2026-03-24_16h41.25.379,asymmetry_final,2024.2.4,120,2026-03-24 16h41.58.434959 -0400,
17,17,0,1,1,baseline,25,2.5,0.1,1.0,0.264,flat,flat_curv,0.0,0.0,-0.1,rew,input_data/stims/Shape_2.50_1.00.png,input_data/stims/Shape_4.00_2.00.png,input_data/stims/Shape_0.00_2.00.png,1,-1,1.0,-1.0,1,up,4.250499791000038,None,up,0.946328874968458,None,None,None,['left'],[0.4619799579959363],[0.8871881249942817],up,1.4943571659969166,None,0,0,0,0,0,17,17,25,122.82940729195252,,,,,,,,,,,,,,,,,122.81939554197015,0.0005012079491280019,123.71134266699664,123.71139129198855,123.7432624590001,124.76726170897018,124.76240866695298,124.76268412498757,0.00028116704197600484,126.2547028749832,126.25601362495217,126.31932316697203,126.31932316697203,126.31932316697203,126.31932316697203,126.31932316697203,126.31932316697203,126.31932316697203,127.82222745899344,"[0.264, 0.264, 0.264, 0.264, 0.264, 0.264, 0.264, 0.264, 0.264, 0.264, 0.264, 0.264, 0.264, 0.264, 0.264, 0.264, 0.264, 0.264, 0.264, 0.264, 0.264, 0.264, 0.264, 0.264, 0.264, 0.264, 0.264, 0.264, 0.264, 0.264, 0.264, 0.264, 0.264, 0.264, 0.264, 0.264, 0.264, 0.264, 0.264, 0.264, 0.264, 0.264, 0.264, 0.264, 0.26, 0.256, 0.252, 0.248, 0.244, 0.24, 0.236, 0.232, 0.228, 0.224, 0.22, 0.216, 0.212, 0.208, 0.204, 0.2, 0.196, 0.192, 0.188, 0.184, 0.18, 0.176, 0.172, 0.168, 0.164, 0.16, 0.156, 0.152, 0.148, 0.144, 0.14, 0.136, 0.132, 0.128, 0.124, 0.12, 0.116, 0.112, 0.108, 0.104, 0.1, 0.096, 0.092, 0.088, 0.084, 0.08, 0.076, 0.072, 0.068, 0.064, 0.06, 0.056, 0.052, 0.048, 0.044, 0.04, 0.036, 0.032, 0.028, 0.024, 0.02, 0.016, 0.012, 0.008, 0.004, 0.0, -0.004, -0.008, -0.012, -0.012, -0.012, -0.012, -0.012, -0.012, -0.012, -0.012, -0.012, -0.012, -0.012, -0.012, -0.012, -0.012]",None,None,['left'],[0.4619799579959363],[0.8871881249942817],up,1.4943571659969166,None,127.82260487496387,127.84523108397843,128.10281483398285,128.09611504198983,128.09620629198616,128.10281483398285,,129.129775666981,,129.1135999590042,1,5,128.10281483398285,129.129775666981,,,,,,,,,,,,,,,,,,,,,kahini,patients,A,2026-03-24_16h41.25.379,asymmetry_final,2024.2.4,120,2026-03-24 16h41.58.434959 -0400,
18,18,0,1,1,baseline,9,0.9,-0.22,1.0,0.092,curv,flat_curv,0.0,0.0,0.22,pen,input_data/stims/Shape_0.90_1.00.png,input_data/stims/Shape_4.00_2.00.png,input_data/stims/Shape_0.00_2.00.png,-1,-1,1.0,-1.0,-1,up,4.250499791000038,None,up,0.946328874968458,None,None,None,"['left', 'right']","[0.5198239570017904, 1.128646665951237]","[0.3351912919897586, 0.17169808299513534]",up,1.6037374989828095,None,0,0,0,0,0,18,18,9,129.129775666981,,,,,,,,,,,,,,,,,129.1146089169779,0.000998250034172088,130.10660850000568,130.1066627499531,130.14197266695555,131.24605874996632,131.223449958954,131.22373324999353,0.00029679201543331146,132.56563949998235,132.56686491699656,132.6293025839841,132.6293025839841,132.6293025839841,132.6293025839841,132.6293025839841,132.6293025839841,132.6293025839841,134.24918945896206,"[0.092, 0.092, 0.092, 0.092, 0.092, 0.092, 0.092, 0.092, 0.092, 0.092, 0.092, 0.092, 0.092, 0.092, 0.092, 0.092, 0.092, 0.092, 0.092, 0.092, 0.092, 0.092, 0.092, 0.092, 0.092, 0.092, 0.092, 0.092, 0.092, 0.092, 0.092, 0.092, 0.092, 0.092, 0.092, 0.092, 0.092, 0.092, 0.092, 0.092, 0.092, 0.092, 0.092, 0.092, 0.092, 0.092, 0.092, 0.092, 0.092, 0.092, 0.088, 0.084, 0.08, 0.076, 0.072, 0.068, 0.064, 0.06, 0.056, 0.052, 0.048, 0.044, 0.04, 0.036, 0.032, 0.028, 0.024, 0.02, 0.016, 0.012, 0.008, 0.004, 0.0, -0.004, -0.008, -0.008, -0.008, -0.008, -0.008, -0.008, -0.008, -0.008, -0.008, -0.008, -0.008, -0.008, -0.008, -0.008, -0.008, -0.008, -0.008, -0.008, -0.008, -0.008, -0.008, -0.008, -0.008, -0.004, 0.0, 0.004, 0.008, 0.012, 0.016, 0.02, 0.024, 0.028, 0.032, 0.036, 0.04, 0.044, 0.044, 0.044, 0.044, 0.044, 0.044, 0.044, 0.044, 0.044, 0.044, 0.044, 0.044, 0.044, 0.044, 0.044, 0.044, 0.044, 0.044, 0.044, 0.044, 0.044, 0.044, 0.044, 0.044, 0.044, 0.044, 0.044, 0.044]",None,None,"['left', 'right']","[0.5198239570017904, 1.128646665951237]","[0.3351912919897586, 0.17169808299513534]",up,1.6037374989828095,None,134.2499061669805,134.25799625000218,134.529318624991,134.51776354195317,134.5178716669907,134.529318624991,134.529318624991,135.52830545895267,135.52830545895267,135.51940929197008,1,1,,,,,,,,,,,,,,,,,,,,,,,kahini,patients,A,2026-03-24_16h41.25.379,asymmetry_final,2024.2.4,120,2026-03-24 16h41.58.434959 -0400,
19,19,0,1,1,baseline,31,3.1,0.22,3.0,-0.076,flat,flat_curv,0.0,0.0,-0.22,rew,input_data/stims/Shape_3.10_3.00.png,input_data/stims/Shape_4.00_2.00.png,input_data/stims/Shape_0.00_2.00.png,1,-1,-1.0,1.0,1,up,4.250499791000038,None,up,0.946328874968458,None,None,None,"['left', 'right', 'left', 'right']","[0.6478524160338566, 0.9536985830054618, 1.5764464160311036, 1.8943450410151854]","[0.11523699999088421, 0.13207674998557195, 0.10802158300066367, 0.2400857500033453]",up,2.354766833013855,None,0,0,0,0,0,19,19,31,135.52830545895267,,,,,,,,,,,,,,,,,135.52035704196896,0.0008997499826364219,136.41232791700168,136.41237041697605,136.44221041700803,137.80282812495716,137.79647483397275,137.79669583396753,0.00026354199508205056,139.28871483396506,139.2900267500081,139.35299920896068,139.35299920896068,139.35299920896068,139.35299920896068,139.35299920896068,139.35299920896068,139.35299920896068,141.7145279169781,"[-0.076, -0.076, -0.076, -0.076, -0.076, -0.076, -0.076, -0.076, -0.076, -0.076, -0.076, -0.076, -0.076, -0.076, -0.076, -0.076, -0.076, -0.076, -0.076, -0.076, -0.076, -0.076, -0.076, -0.076, -0.076, -0.076, -0.076, -0.076, -0.076, -0.076, -0.076, -0.076, -0.076, -0.076, -0.076, -0.076, -0.076, -0.076, -0.076, -0.076, -0.076, -0.076, -0.076, -0.076, -0.076, -0.076, -0.076, -0.076, -0.076, -0.076, -0.076, -0.076, -0.076, -0.076, -0.076, -0.076, -0.076, -0.076, -0.076, -0.076, -0.076, -0.08, -0.084, -0.088, -0.092, -0.096, -0.1, -0.104, -0.108, -0.112, -0.112, -0.112, -0.112, -0.112, -0.112, -0.112, -0.112, -0.112, -0.112, -0.112, -0.112, -0.112, -0.112, -0.112, -0.112, -0.112, -0.108, -0.104, -0.1, -0.096, -0.092, -0.088, -0.084, -0.08, -0.076, -0.072, -0.068, -0.068, -0.068, -0.068, -0.068, -0.068, -0.068, -0.068, -0.068, -0.068, -0.068, -0.068, -0.068, -0.068, -0.068, -0.068, -0.068, -0.068, -0.068, -0.068, -0.068, -0.068, -0.068, -0.068, -0.068, -0.068, -0.068, -0.068, -0.068, -0.068, -0.068, -0.068, -0.068, -0.068, -0.068, -0.068, -0.068, -0.068, -0.068, -0.068, -0.068, -0.068, -0.072, -0.076, -0.08, -0.084, -0.088, -0.092, -0.096, -0.1, -0.1, -0.1, -0.1, -0.1, -0.1, -0.1, -0.1, -0.1, -0.1, -0.1, -0.1, -0.1, -0.1, -0.1, -0.1, -0.1, -0.1, -0.1, -0.096, -0.092, -0.088, -0.084, -0.08, -0.076, -0.072, -0.068, -0.064, -0.06, -0.056, -0.052, -0.048, -0.044, -0.04, -0.036, -0.032, -0.028, -0.024, -0.024, -0.024, -0.024, -0.024, -0.024, -0.024, -0.024, -0.024, -0.024, -0.024, -0.024, -0.024, -0.024, -0.024, -0.024, -0.024, -0.024, -0.024, -0.024, -0.024]",None,None,"['left', 'right', 'left', 'right']","[0.6478524160338566, 0.9536985830054618, 1.5764464160311036, 1.8943450410151854]","[0.11523699999088421, 0.13207674998557195, 0.10802158300066367, 0.2400857500033453]",up,2.354766833013855,None,141.71504891698714,141.72222462500213,141.97070224996423,141.96327958395705,141.9633900419576,141.97070224996423,,142.96983129199361,,142.96311762498226,1,5,141.97070224996423,142.96983129199361,,,,,,,,,,,,,,,,,,,,,kahini,patients,A,2026-03-24_16h41.25.379,asymmetry_final,2024.2.4,120,2026-03-24 16h41.58.434959 -0400,
20,20,0,1,1,baseline,36,3.7,0.34,1.0,-0.028,flat,curv_flat,0.0,0.0,0.34,rew,input_data/stims/Shape_3.70_1.00.png,input_data/stims/Shape_0.00_2.00.png,input_data/stims/Shape_4.00_2.00.png,1,1,-1.0,-1.0,1,up,4.250499791000038,None,up,0.946328874968458,None,None,None,['right'],[0.6025245410273783],[0.26706154097337276],up,1.0629034989979118,None,0,0,0,0,0,20,20,36,142.96983129199361,,,,,,,,,,,,,,,,,142.96415491699008,0.0010284160380251706,143.90621808398282,143.90627020900138,143.9396165839862,145.36240770900622,145.35691554198274,145.3571689169621,0.0002625840133987367,146.74909129197476,146.75044179195538,146.82249191700248,146.82249191700248,146.82249191700248,146.82249191700248,146.82249191700248,146.82249191700248,146.82249191700248,147.89259245898575,"[-0.028, -0.028, -0.028, -0.028, -0.028, -0.028, -0.028, -0.028, -0.028, -0.028, -0.028, -0.028, -0.028, -0.028, -0.028, -0.028, -0.028, -0.028, -0.028, -0.028, -0.028, -0.028, -0.028, -0.028, -0.028, -0.028, -0.028, -0.028, -0.028, -0.028, -0.028, -0.028, -0.028, -0.028, -0.028, -0.028, -0.028, -0.028, -0.028, -0.028, -0.028, -0.028, -0.028, -0.028, -0.028, -0.028, -0.028, -0.028, -0.028, -0.028, -0.028, -0.028, -0.024, -0.02, -0.016, -0.012, -0.008, -0.004, 0.0, 0.004, 0.008, 0.012, 0.016, 0.02, 0.024, 0.028, 0.032, 0.036, 0.04, 0.044, 0.044, 0.044, 0.044, 0.044, 0.044, 0.044, 0.044, 0.044, 0.044, 0.044, 0.044, 0.044, 0.044, 0.044, 0.044, 0.044, 0.044, 0.044, 0.044]",None,None,['right'],[0.6025245410273783],[0.26706154097337276],up,1.0629034989979118,None,147.89284979196964,147.8990764169721,148.15364787500584,148.14692637498956,148.14702954195673,148.15364787500584,,149.1509245839552,,149.14544379198924,1,5,148.15364787500584,149.1509245839552,,,,,,,,,,,,,,,,,,,,,kahini,patients,A,2026-03-24_16h41.25.379,asymmetry_final,2024.2.4,120,2026-03-24 16h41.58.434959 -0400,
21,21,0,1,1,baseline,15,1.5,-0.1,1.0,0.384,curv,flat_curv,0.0,0.0,0.1,pen,input_data/stims/Shape_1.50_1.00.png,input_data/stims/Shape_4.00_2.00.png,input_data/stims/Shape_0.00_2.00.png,-1,-1,1.0,-1.0,-1,up,4.250499791000038,None,up,0.946328874968458,None,None,None,['left'],[0.5887729580281302],[1.1319350419798866],up,1.8878132500103675,None,0,0,0,0,0,21,21,15,149.1509245839552,,,,,,,,,,,,,,,,,149.14632795896614,0.0008914170321077108,150.18825487495633,150.18831150000915,150.22680570895318,151.31957066699397,151.31456008396344,151.31488520896528,0.00032779097091406584,152.65690187498694,152.65824458398856,152.72124379198067,152.72124379198067,152.72124379198067,152.72124379198067,152.72124379198067,152.72124379198067,152.72124379198067,154.61513554200064,"[0.384, 0.384, 0.384, 0.384, 0.384, 0.384, 0.384, 0.384, 0.384, 0.384, 0.384, 0.384, 0.384, 0.384, 0.384, 0.384, 0.384, 0.384, 0.384, 0.384, 0.384, 0.384, 0.384, 0.384, 0.384, 0.384, 0.384, 0.384, 0.384, 0.384, 0.384, 0.384, 0.384, 0.384, 0.384, 0.384, 0.384, 0.384, 0.384, 0.384, 0.384, 0.384, 0.384, 0.384, 0.384, 0.384, 0.384, 0.384, 0.384, 0.384, 0.384, 0.384, 0.384, 0.384, 0.38, 0.376, 0.372, 0.368, 0.364, 0.36, 0.356, 0.352, 0.348, 0.344, 0.34, 0.336, 0.332, 0.328, 0.324, 0.32, 0.316, 0.312, 0.308, 0.304, 0.3, 0.296, 0.292, 0.288, 0.284, 0.28, 0.276, 0.272, 0.268, 0.264, 0.26, 0.256, 0.252, 0.248, 0.244, 0.24, 0.236, 0.232, 0.228, 0.224, 0.22, 0.216, 0.212, 0.208, 0.204, 0.2, 0.196, 0.192, 0.188, 0.184, 0.18, 0.176, 0.172, 0.168, 0.164, 0.16, 0.156, 0.152, 0.148, 0.144, 0.14, 0.136, 0.132, 0.128, 0.124, 0.12, 0.116, 0.112, 0.108, 0.104, 0.1, 0.096, 0.092, 0.088, 0.084, 0.08, 0.076, 0.072, 0.068, 0.064, 0.06, 0.056, 0.056, 0.056, 0.056, 0.056, 0.056, 0.056, 0.056, 0.056, 0.056, 0.056, 0.056, 0.056, 0.056, 0.056, 0.056, 0.056, 0.056]",None,None,['left'],[0.5887729580281302],[1.1319350419798866],up,1.8878132500103675,None,154.61557308398187,154.62286762497388,154.87044808396604,154.86346212495118,154.86359279195312,154.87044808396604,154.87044808396604,155.86943745898316,155.86943745898316,155.86326054198435,1,1,,,,,,,,,,,,,,,,,,,,,,,kahini,patients,A,2026-03-24_16h41.25.379,asymmetry_final,2024.2.4,120,2026-03-24 16h41.58.434959 -0400,
22,22,0,1,1,baseline,8,0.9,-0.22,3.0,0.148,curv,curv_flat,0.0,0.0,-0.22,pen,input_data/stims/Shape_0.90_3.00.png,input_data/stims/Shape_0.00_2.00.png,input_data/stims/Shape_4.00_2.00.png,-1,1,1.0,1.0,-1,up,4.250499791000038,None,up,0.946328874968458,None,None,None,['left'],[0.6765247500152327],[0.5921139580314048],up,1.4743765410385095,None,0,0,0,0,0,22,22,8,155.86943745898316,,,,,,,,,,,,,,,,,155.86405412497697,0.0007752500241622329,156.80596929200692,156.80601637496147,156.83770941698458,157.92880683398107,157.92201745900093,157.92229404195677,0.0002828330034390092,159.26431629195577,159.26568462495925,159.32801858399762,159.32801858399762,159.32801858399762,159.32801858399762,159.32801858399762,159.32801858399762,159.32801858399762,160.8180174169829,"[0.148, 0.148, 0.148, 0.148, 0.148, 0.148, 0.148, 0.148, 0.148, 0.148, 0.148, 0.148, 0.148, 0.148, 0.148, 0.148, 0.148, 0.148, 0.148, 0.148, 0.148, 0.148, 0.148, 0.148, 0.148, 0.148, 0.148, 0.148, 0.148, 0.148, 0.148, 0.148, 0.148, 0.148, 0.148, 0.148, 0.148, 0.148, 0.148, 0.148, 0.148, 0.148, 0.148, 0.148, 0.148, 0.148, 0.148, 0.148, 0.148, 0.148, 0.148, 0.148, 0.148, 0.148, 0.148, 0.148, 0.148, 0.148, 0.148, 0.148, 0.148, 0.148, 0.148, 0.148, 0.148, 0.148, 0.144, 0.14, 0.136, 0.132, 0.128, 0.124, 0.12, 0.116, 0.112, 0.108, 0.104, 0.1, 0.096, 0.092, 0.088, 0.084, 0.08, 0.076, 0.072, 0.068, 0.064, 0.06, 0.056, 0.052, 0.048, 0.044, 0.04, 0.036, 0.032, 0.028, 0.024, 0.02, 0.016, 0.012, 0.008, 0.004, 0.0, -0.004, -0.008, -0.012, -0.016, -0.02, -0.024, -0.028, -0.032, -0.036, -0.036, -0.036, -0.036, -0.036, -0.036, -0.036, -0.036, -0.036, -0.036, -0.036, -0.036, -0.036, -0.036, -0.036, -0.036, -0.036, -0.036, -0.036, -0.036]",None,None,['left'],[0.6765247500152327],[0.5921139580314048],up,1.4743765410385095,None,160.81847841700073,160.8237115839729,161.12871174997417,161.11905674997251,161.11917333398014,161.12871174997417,161.12871174997417,162.14589604199864,162.14589604199864,162.13649033399997,1,1,,,,,,,,,,,,,,,,,,,,,,,kahini,patients,A,2026-03-24_16h41.25.379,asymmetry_final,2024.2.4,120,2026-03-24 16h41.58.434959 -0400,
23,23,0,1,1,baseline,11,1.1,-0.18,1.0,0.388,curv,flat_curv,0.0,0.0,0.18,pen,input_data/stims/Shape_1.10_1.00.png,input_data/stims/Shape_4.00_2.00.png,input_data/stims/Shape_0.00_2.00.png,-1,-1,1.0,-1.0,-1,up,4.250499791000038,None,up,0.946328874968458,None,None,None,['left'],[0.517505333002191],[1.1199563749833032],up,1.7083565409993753,None,0,0,0,0,0,23,23,11,162.14589604199864,,,,,,,,,,,,,,,,,162.13736333395354,0.0008580840076319873,163.22931287495885,163.2293697919813,163.26093004195718,164.44596287497552,164.43899483396672,164.43928870896343,0.0002919579856097698,165.8813120839768,165.8826436669915,165.94512887496967,165.94512887496967,165.94512887496967,165.94512887496967,165.94512887496967,165.94512887496967,165.94512887496967,167.65641166700516,"[0.388, 0.388, 0.388, 0.388, 0.388, 0.388, 0.388, 0.388, 0.388, 0.388, 0.388, 0.388, 0.388, 0.388, 0.388, 0.388, 0.388, 0.388, 0.388, 0.388, 0.388, 0.388, 0.388, 0.388, 0.388, 0.388, 0.388, 0.388, 0.388, 0.388, 0.388, 0.388, 0.388, 0.388, 0.388, 0.388, 0.388, 0.388, 0.388, 0.388, 0.388, 0.388, 0.388, 0.388, 0.388, 0.388, 0.388, 0.384, 0.38, 0.376, 0.372, 0.368, 0.364, 0.36, 0.356, 0.352, 0.348, 0.344, 0.34, 0.336, 0.332, 0.328, 0.324, 0.32, 0.316, 0.312, 0.308, 0.304, 0.3, 0.296, 0.292, 0.288, 0.284, 0.28, 0.276, 0.272, 0.268, 0.264, 0.26, 0.256, 0.252, 0.248, 0.244, 0.24, 0.236, 0.232, 0.228, 0.224, 0.22, 0.216, 0.212, 0.208, 0.204, 0.2, 0.196, 0.192, 0.188, 0.184, 0.18, 0.176, 0.172, 0.168, 0.164, 0.16, 0.156, 0.152, 0.148, 0.144, 0.14, 0.136, 0.132, 0.128, 0.124, 0.12, 0.116, 0.112, 0.108, 0.104, 0.1, 0.096, 0.092, 0.088, 0.084, 0.08, 0.076, 0.072, 0.068, 0.064, 0.06, 0.056, 0.052, 0.048, 0.044, 0.04, 0.036, 0.036, 0.036, 0.036, 0.036, 0.036, 0.036, 0.036, 0.036]",None,None,['left'],[0.517505333002191],[1.1199563749833032],up,1.7083565409993753,None,167.65677616698667,167.67909366695676,167.96274045895552,167.9528587499517,167.9529578340007,167.96274045895552,167.96274045895552,169.02958362497156,169.02958362497156,169.01914420898538,1,1,,,,,,,,,,,,,,,,,,,,,,,kahini,patients,A,2026-03-24_16h41.25.379,asymmetry_final,2024.2.4,120,2026-03-24 16h41.58.434959 -0400,
24,24,0,1,1,baseline,0,0.1,-0.38,1.0,-0.328,curv,curv_flat,0.0,0.0,-0.38,pen,input_data/stims/Shape_0.10_1.00.png,input_data/stims/Shape_0.00_2.00.png,input_data/stims/Shape_4.00_2.00.png,-1,1,-1.0,-1.0,-1,up,4.250499791000038,None,up,0.946328874968458,None,None,None,['right'],[0.770584999001585],[0.9240152079728432],up,1.8251843319740146,None,0,0,0,0,0,24,24,0,169.02958362497156,,,,,,,,,,,,,,,,,169.02005887497216,0.0008978749974630773,170.1121382919955,170.11219412495848,170.146988374996,171.27972925000358,171.27206733397907,171.27241920895176,0.0003658750210888684,172.61442316696048,172.61575895897113,172.67818724998506,172.67818724998506,172.67818724998506,172.67818724998506,172.67818724998506,172.67818724998506,172.67818724998506,174.5113279169891,"[-0.328, -0.328, -0.328, -0.328, -0.328, -0.328, -0.328, -0.328, -0.328, -0.328, -0.328, -0.328, -0.328, -0.328, -0.328, -0.328, -0.328, -0.328, -0.328, -0.328, -0.328, -0.328, -0.328, -0.328, -0.328, -0.328, -0.328, -0.328, -0.328, -0.328, -0.328, -0.328, -0.328, -0.328, -0.328, -0.328, -0.328, -0.328, -0.328, -0.328, -0.328, -0.328, -0.328, -0.328, -0.328, -0.328, -0.328, -0.328, -0.328, -0.328, -0.328, -0.328, -0.328, -0.328, -0.328, -0.328, -0.328, -0.328, -0.328, -0.328, -0.328, -0.328, -0.328, -0.328, -0.328, -0.328, -0.328, -0.328, -0.324, -0.32, -0.316, -0.312, -0.308, -0.304, -0.3, -0.296, -0.292, -0.288, -0.284, -0.28, -0.276, -0.272, -0.268, -0.264, -0.26, -0.256, -0.252, -0.248, -0.244, -0.24, -0.236, -0.232, -0.228, -0.224, -0.22, -0.216, -0.212, -0.208, -0.204, -0.2, -0.196, -0.192, -0.188, -0.184, -0.18, -0.176, -0.172, -0.168, -0.164, -0.16, -0.156, -0.152, -0.148, -0.144, -0.14, -0.136, -0.132, -0.128, -0.124, -0.12, -0.116, -0.112, -0.108, -0.104, -0.1, -0.096, -0.092, -0.088, -0.084, -0.08, -0.076, -0.072, -0.068, -0.064, -0.06, -0.056, -0.052, -0.048, -0.044, -0.04, -0.036, -0.036, -0.036, -0.036, -0.036, -0.036, -0.036, -0.036, -0.036, -0.036, -0.036, -0.036, -0.036]",None,None,['right'],[0.770584999001585],[0.9240152079728432],up,1.8251843319740146,None,174.51179691695143,174.5189014589996,174.76987012499012,174.76325120899128,174.76336670899764,174.76987012499012,174.76987012499012,175.80445508396951,175.80445508396951,175.79729012498865,1,1,,,,,,,,,,,,,,,,,,,,,,,kahini,patients,A,2026-03-24_16h41.25.379,asymmetry_final,2024.2.4,120,2026-03-24 16h41.58.434959 -0400,
25,25,0,1,1,baseline,39,3.9,0.38,3.0,0.024,flat,flat_curv,0.0,0.0,-0.38,rew,input_data/stims/Shape_3.90_3.00.png,input_data/stims/Shape_4.00_2.00.png,input_data/stims/Shape_0.00_2.00.png,1,-1,1.0,1.0,1,up,4.250499791000038,None,up,0.946328874968458,None,None,None,['left'],[0.533419249986764],[0.2875163329881616],up,0.9705456660012715,None,0,0,0,0,0,25,25,39,175.80445508396951,,,,,,,,,,,,,,,,,175.79812929197215,0.0008233339758589864,176.8900273339823,176.89006879198132,176.92065624997485,177.99472783395322,177.98690099996747,177.98719183396315,0.0002900409745052457,179.32912924996344,179.33033024996985,179.39298399997642,179.39298399997642,179.39298399997642,179.39298399997642,179.39298399997642,179.39298399997642,179.39298399997642,180.3664974590065,"[0.024, 0.024, 0.024, 0.024, 0.024, 0.024, 0.024, 0.024, 0.024, 0.024, 0.024, 0.024, 0.024, 0.024, 0.024, 0.024, 0.024, 0.024, 0.024, 0.024, 0.024, 0.024, 0.024, 0.024, 0.024, 0.024, 0.024, 0.024, 0.024, 0.024, 0.024, 0.024, 0.024, 0.024, 0.024, 0.024, 0.024, 0.024, 0.024, 0.024, 0.024, 0.024, 0.024, 0.024, 0.024, 0.024, 0.024, 0.024, 0.024, 0.02, 0.016, 0.012, 0.008, 0.004, 0.0, -0.004, -0.008, -0.012, -0.016, -0.02, -0.024, -0.028, -0.032, -0.036, -0.04, -0.044, -0.048, -0.052, -0.056, -0.056, -0.056, -0.056, -0.056, -0.056, -0.056, -0.056, -0.056, -0.056, -0.056, -0.056]",None,None,['left'],[0.533419249986764],[0.2875163329881616],up,0.9705456660012715,None,180.36711724998895,180.37496987497434,180.6466019169893,180.63598541700048,180.6360892090015,180.6466019169893,,181.67955324996728,,181.6697878749692,1,5,180.6466019169893,181.67955324996728,,,,,,,,,,,,,,,,,,,,,kahini,patients,A,2026-03-24_16h41.25.379,asymmetry_final,2024.2.4,120,2026-03-24 16h41.58.434959 -0400,
26,26,0,1,1,baseline,12,1.3,-0.14,1.0,-0.06,curv,curv_flat,0.0,0.0,-0.14,pen,input_data/stims/Shape_1.30_1.00.png,input_data/stims/Shape_0.00_2.00.png,input_data/stims/Shape_4.00_2.00.png,-1,1,-1.0,-1.0,-1,up,4.250499791000038,None,up,0.946328874968458,None,None,None,"['left', 'right']","[1.2036358740297146, 1.6329087910125963]","[0.1431883330224082, 0.1481492500170134]",up,2.336295624030754,None,0,0,0,0,0,26,26,12,181.67955324996728,,,,,,,,,,,,,,,,,181.67064587498317,0.0008410000009462237,182.61267212498933,182.61273045896087,182.6447297919658,183.81393183395267,183.79745458398247,183.79769062495325,0.00024091603700071573,185.13970845896984,185.14104912499897,185.20211587497033,185.20211587497033,185.20211587497033,185.20211587497033,185.20211587497033,185.20211587497033,185.20211587497033,187.54154424997978,"[-0.06, -0.06, -0.06, -0.06, -0.06, -0.06, -0.06, -0.06, -0.06, -0.06, -0.06, -0.06, -0.06, -0.06, -0.06, -0.06, -0.06, -0.06, -0.06, -0.06, -0.06, -0.06, -0.06, -0.06, -0.06, -0.06, -0.06, -0.06, -0.06, -0.06, -0.06, -0.06, -0.06, -0.06, -0.06, -0.06, -0.06, -0.06, -0.06, -0.06, -0.06, -0.06, -0.06, -0.06, -0.06, -0.06, -0.06, -0.06, -0.06, -0.06, -0.06, -0.06, -0.06, -0.06, -0.06, -0.06, -0.06, -0.06, -0.06, -0.06, -0.06, -0.06, -0.06, -0.06, -0.06, -0.06, -0.06, -0.06, -0.06, -0.06, -0.06, -0.06, -0.06, -0.06, -0.06, -0.06, -0.06, -0.06, -0.06, -0.06, -0.06, -0.06, -0.06, -0.06, -0.06, -0.06, -0.06, -0.06, -0.06, -0.06, -0.06, -0.06, -0.06, -0.06, -0.06, -0.06, -0.06, -0.06, -0.06, -0.06, -0.06, -0.06, -0.06, -0.06, -0.06, -0.06, -0.06, -0.06, -0.064, -0.068, -0.072, -0.076, -0.08, -0.084, -0.088, -0.092, -0.096, -0.1, -0.104, -0.104, -0.104, -0.104, -0.104, -0.104, -0.104, -0.104, -0.104, -0.104, -0.104, -0.104, -0.104, -0.104, -0.104, -0.104, -0.104, -0.104, -0.104, -0.104, -0.104, -0.104, -0.104, -0.104, -0.104, -0.104, -0.1, -0.096, -0.092, -0.088, -0.084, -0.08, -0.076, -0.072, -0.068, -0.064, -0.06, -0.056, -0.056, -0.056, -0.056, -0.056, -0.056, -0.056, -0.056, -0.056, -0.056, -0.056, -0.056, -0.056, -0.056, -0.056, -0.056, -0.056, -0.056, -0.056, -0.056, -0.056, -0.056, -0.056, -0.056, -0.056, -0.056, -0.056, -0.056, -0.056, -0.056, -0.056, -0.056, -0.056, -0.056, -0.056, -0.056, -0.056, -0.056, -0.056, -0.056, -0.056, -0.056, -0.056, -0.056, -0.056, -0.056, -0.056, -0.056, -0.056, -0.056, -0.056]",None,None,"['left', 'right']","[1.2036358740297146, 1.6329087910125963]","[0.1431883330224082, 0.1481492500170134]",up,2.336295624030754,None,187.54203599999892,187.54892254195875,187.8050183749874,187.79726116696838,187.7973893749877,187.8050183749874,187.8050183749874,188.82981683395337,188.82981683395337,188.81868329196004,1,1,,,,,,,,,,,,,,,,,,,,,,,kahini,patients,A,2026-03-24_16h41.25.379,asymmetry_final,2024.2.4,120,2026-03-24 16h41.58.434959 -0400,
27,27,0,1,1,baseline,18,1.9,-0.02,1.0,-0.124,curv,curv_flat,0.0,0.0,-0.02,pen,input_data/stims/Shape_1.90_1.00.png,input_data/stims/Shape_0.00_2.00.png,input_data/stims/Shape_4.00_2.00.png,-1,1,-1.0,-1.0,-1,up,4.250499791000038,None,up,0.946328874968458,None,None,None,"['right', 'right', 'right', 'right']","[0.9112710820045322, 1.1609492489951663, 1.3408875409513712, 1.5148605819558725]","[0.10725470900069922, 0.08799091697437689, 0.0841248330543749, 0.09213195904158056]",up,1.7228613320039585,None,0,0,0,0,0,27,27,18,188.82981683395337,,,,,,,,,,,,,,,,,188.81954237498576,0.0008442079997621477,189.76156512496527,189.76161866699113,189.79308995895553,190.84673129196744,190.82460925000487,190.82483645895263,0.000235208950471133,192.31679262500256,192.3179963749717,192.38166716700653,192.38166716700653,192.38166716700653,192.38166716700653,192.38166716700653,192.38166716700653,192.38166716700653,194.1095179169788,"[-0.124, -0.124, -0.124, -0.124, -0.124, -0.124, -0.124, -0.124, -0.124, -0.124, -0.124, -0.124, -0.124, -0.124, -0.124, -0.124, -0.124, -0.124, -0.124, -0.124, -0.124, -0.124, -0.124, -0.124, -0.124, -0.124, -0.124, -0.124, -0.124, -0.124, -0.124, -0.124, -0.124, -0.124, -0.124, -0.124, -0.124, -0.124, -0.124, -0.124, -0.124, -0.124, -0.124, -0.124, -0.124, -0.124, -0.124, -0.124, -0.124, -0.124, -0.124, -0.124, -0.124, -0.124, -0.124, -0.124, -0.124, -0.124, -0.124, -0.124, -0.124, -0.124, -0.124, -0.124, -0.124, -0.124, -0.124, -0.124, -0.124, -0.124, -0.124, -0.124, -0.124, -0.124, -0.124, -0.124, -0.124, -0.124, -0.124, -0.124, -0.124, -0.124, -0.124, -0.12, -0.116, -0.112, -0.108, -0.104, -0.1, -0.096, -0.092, -0.092, -0.092, -0.092, -0.092, -0.092, -0.092, -0.092, -0.092, -0.092, -0.092, -0.092, -0.092, -0.092, -0.088, -0.084, -0.08, -0.076, -0.072, -0.068, -0.068, -0.068, -0.068, -0.068, -0.068, -0.068, -0.068, -0.068, -0.064, -0.06, -0.056, -0.052, -0.048, -0.048, -0.048, -0.048, -0.048, -0.048, -0.048, -0.048, -0.044, -0.04, -0.036, -0.032, -0.028, -0.024, -0.024, -0.024, -0.024, -0.024, -0.024, -0.024, -0.024, -0.024, -0.024, -0.024, -0.024, -0.024]",None,None,"['right', 'right', 'right', 'right']","[0.9112710820045322, 1.1609492489951663, 1.3408875409513712, 1.5148605819558725]","[0.10725470900069922, 0.08799091697437689, 0.0841248330543749, 0.09213195904158056]",up,1.7228613320039585,None,194.10986829199828,194.11612908396637,194.3719280840014,194.36435120896203,194.36446274997434,194.3719280840014,194.3719280840014,195.46322716696886,195.46322716696886,195.45300979196327,1,1,,,,,,,,,,,,,,,,,,,,,,,kahini,patients,A,2026-03-24_16h41.25.379,asymmetry_final,2024.2.4,120,2026-03-24 16h41.58.434959 -0400,
28,28,0,1,1,baseline,26,2.7,0.14,3.0,0.072,flat,curv_flat,0.0,0.0,0.14,rew,input_data/stims/Shape_2.70_3.00.png,input_data/stims/Shape_0.00_2.00.png,input_data/stims/Shape_4.00_2.00.png,1,1,1.0,1.0,1,up,4.250499791000038,None,up,0.946328874968458,None,None,None,None,,,up,2.726814749010373,None,0,0,0,0,0,28,28,26,195.46322716696886,,,,,,,,,,,,,,,,,195.45385304198135,0.0008261670009233057,196.44581887498498,196.4458752499777,196.47909325000364,197.69535458396422,197.6902712089941,197.69054904195946,0.00028737500542774796,198.98248179198708,198.98373762500705,199.04716262500733,199.04716262500733,199.04716262500733,199.04716262500733,199.04716262500733,199.04716262500733,199.04716262500733,201.78771804197459,"[0.072, 0.072, 0.072, 0.072, 0.072, 0.072, 0.072, 0.072, 0.072, 0.072, 0.072, 0.072, 0.072, 0.072, 0.072, 0.072, 0.072, 0.072, 0.072, 0.072, 0.072, 0.072, 0.072, 0.072, 0.072, 0.072, 0.072, 0.072, 0.072, 0.072, 0.072, 0.072, 0.072, 0.072, 0.072, 0.072, 0.072, 0.072, 0.072, 0.072, 0.072, 0.072, 0.072, 0.072, 0.072, 0.072, 0.072, 0.072, 0.072, 0.072, 0.072, 0.072, 0.072, 0.072, 0.072, 0.072, 0.072, 0.072, 0.072, 0.072, 0.072, 0.072, 0.072, 0.072, 0.072, 0.072, 0.072, 0.072, 0.072, 0.072, 0.072, 0.072, 0.072, 0.072, 0.072, 0.072, 0.072, 0.072, 0.072, 0.072, 0.072, 0.072, 0.072, 0.072, 0.072, 0.072, 0.072, 0.072, 0.072, 0.072, 0.072, 0.072, 0.072, 0.072, 0.072, 0.072, 0.072, 0.072, 0.072, 0.072, 0.072, 0.072, 0.072, 0.072, 0.072, 0.072, 0.072, 0.072, 0.072, 0.072, 0.072, 0.072, 0.072, 0.072, 0.072, 0.072, 0.072, 0.072, 0.072, 0.072, 0.072, 0.072, 0.072, 0.072, 0.072, 0.072, 0.072, 0.072, 0.072, 0.072, 0.072, 0.072, 0.072, 0.072, 0.072, 0.072, 0.072, 0.072, 0.072, 0.072, 0.072, 0.072, 0.072, 0.072, 0.072, 0.072, 0.072, 0.072, 0.072, 0.072, 0.072, 0.072, 0.072, 0.072, 0.072, 0.072, 0.072, 0.072, 0.072, 0.072, 0.072, 0.072, 0.072, 0.072, 0.072, 0.072, 0.072, 0.072, 0.072, 0.072, 0.072, 0.072, 0.072, 0.072, 0.072, 0.072, 0.072, 0.072, 0.072, 0.072, 0.072, 0.072, 0.072, 0.072, 0.072, 0.072, 0.072, 0.072, 0.072, 0.072, 0.072, 0.072, 0.072, 0.072, 0.072, 0.072, 0.072, 0.072, 0.072, 0.072, 0.072, 0.072, 0.072, 0.072, 0.072, 0.072, 0.072, 0.072, 0.072, 0.072, 0.072, 0.072, 0.072, 0.072, 0.072, 0.072, 0.072, 0.072, 0.072, 0.072, 0.072, 0.072, 0.072, 0.072, 0.072, 0.072, 0.072, 0.072, 0.072, 0.072, 0.072, 0.072, 0.072, 0.072, 0.072, 0.072]",None,None,None,,,up,2.726814749010373,None,201.78804437496,201.79558204195928,202.07913833396742,202.0637626670068,202.07188054197468,202.07913833396742,,203.08660920895636,,203.08088404196315,0,-1,,,202.07913833396742,203.08660920895636,,,,,,,,,,,,,,,,,,,kahini,patients,A,2026-03-24_16h41.25.379,asymmetry_final,2024.2.4,120,2026-03-24 16h41.58.434959 -0400,
29,29,0,1,1,baseline,22,2.3,0.06,1.0,0.232,flat,curv_flat,0.0,0.0,0.06,rew,input_data/stims/Shape_2.30_1.00.png,input_data/stims/Shape_0.00_2.00.png,input_data/stims/Shape_4.00_2.00.png,1,1,1.0,-1.0,1,up,4.250499791000038,None,up,0.946328874968458,None,None,None,"['left', 'left', 'left', 'right', 'right', 'left', 'right']","[0.6776617069845088, 1.5524098739842884, 1.8853696240112185, 2.267184416006785, 2.6309718739939854, 3.15471695701126, 3.775120706995949]","[0.6272082500508986, 0.1641387920244597, 0.1279712080140598, 0.13594262499827892, 0.14404350001132116, 0.16002249997109175, 0.1402051670011133]",up,4.112160332035273,None,0,0,0,0,0,29,29,22,203.08660920895636,,,,,,,,,,,,,,,,,203.08164349995786,0.0007492080330848694,204.12381529196864,204.12396137497853,204.22695579199353,205.3387588749756,205.33368724997854,205.33400983398315,0.0003077919827774167,206.67596787499497,206.67765537498053,206.76942708395654,206.76942708395654,206.76942708395654,206.76942708395654,206.76942708395654,206.76942708395654,206.76942708395654,210.89207404199988,"[0.232, 0.232, 0.232, 0.232, 0.232, 0.232, 0.232, 0.232, 0.232, 0.232, 0.232, 0.232, 0.232, 0.232, 0.232, 0.232, 0.232, 0.232, 0.232, 0.232, 0.232, 0.232, 0.232, 0.232, 0.232, 0.232, 0.232, 0.232, 0.232, 0.232, 0.232, 0.232, 0.232, 0.232, 0.232, 0.232, 0.232, 0.232, 0.232, 0.232, 0.232, 0.232, 0.232, 0.232, 0.232, 0.232, 0.232, 0.232, 0.232, 0.232, 0.232, 0.232, 0.232, 0.232, 0.232, 0.232, 0.232, 0.232, 0.232, 0.232, 0.232, 0.228, 0.224, 0.22, 0.216, 0.212, 0.208, 0.204, 0.2, 0.196, 0.192, 0.188, 0.184, 0.18, 0.176, 0.172, 0.168, 0.164, 0.16, 0.156, 0.152, 0.148, 0.144, 0.14, 0.136, 0.132, 0.128, 0.124, 0.12, 0.116, 0.112, 0.108, 0.104, 0.1, 0.096, 0.092, 0.088, 0.084, 0.08, 0.076, 0.072, 0.068, 0.064, 0.06, 0.056, 0.052, 0.048, 0.044, 0.04, 0.036, 0.032, 0.028, 0.028, 0.028, 0.028, 0.028, 0.028, 0.028, 0.028, 0.028, 0.028, 0.028, 0.028, 0.028, 0.028, 0.028, 0.028, 0.028, 0.028, 0.028, 0.028, 0.028, 0.028, 0.028, 0.028, 0.028, 0.024, 0.02, 0.016, 0.012, 0.008, 0.004, 0.0, -0.004, -0.008, -0.012, -0.016, -0.016, -0.016, -0.016, -0.016, -0.016, -0.016, -0.016, -0.016, -0.016, -0.016, -0.016, -0.016, -0.016, -0.016, -0.016, -0.02, -0.024, -0.028, -0.032, -0.036, -0.04, -0.044, -0.048, -0.052, -0.056, -0.056, -0.056, -0.056, -0.056, -0.056, -0.056, -0.056, -0.056, -0.056, -0.056, -0.056, -0.056, -0.056, -0.056, -0.056, -0.056, -0.056, -0.056, -0.056, -0.056, -0.056, -0.056, -0.052, -0.048, -0.044, -0.04, -0.036, -0.032, -0.028, -0.024, -0.02, -0.016, -0.016, -0.016, -0.016, -0.016, -0.016, -0.016, -0.016, -0.016, -0.016, -0.016, -0.016, -0.016, -0.016, -0.016, -0.016, -0.016, -0.016, -0.016, -0.016, -0.016, -0.012, -0.008, -0.004, 0.0, 0.004, 0.008, 0.012, 0.016, 0.02, 0.024, 0.024, 0.024, 0.024, 0.024, 0.024, 0.024, 0.024, 0.024, 0.024, 0.024, 0.024, 0.024, 0.024, 0.024, 0.024, 0.024, 0.024, 0.024, 0.024, 0.024, 0.024, 0.024, 0.024, 0.024, 0.024, 0.024, 0.024, 0.024, 0.024, 0.024, 0.024, 0.024, 0.024, 0.024, 0.02, 0.016, 0.012, 0.008, 0.004, 0.0, -0.004, -0.008, -0.012, -0.016, -0.02, -0.024, -0.024, -0.024, -0.024, -0.024, -0.024, -0.024, -0.024, -0.024, -0.024, -0.024, -0.024, -0.024, -0.024, -0.024, -0.024, -0.024, -0.024, -0.024, -0.024, -0.024, -0.024, -0.024, -0.024, -0.024, -0.024, -0.024, -0.024, -0.024, -0.024, -0.024, -0.024, -0.024, -0.024, -0.024, -0.024, -0.024, -0.024, -0.024, -0.024, -0.02, -0.016, -0.012, -0.008, -0.004, 0.0, 0.004, 0.008, 0.012, 0.016, 0.02, 0.02, 0.02, 0.02, 0.02, 0.02, 0.02, 0.02, 0.02, 0.02, 0.02, 0.02, 0.02, 0.02, 0.02, 0.02, 0.02]",None,None,"['left', 'left', 'left', 'right', 'right', 'left', 'right']","[0.6776617069845088, 1.5524098739842884, 1.8853696240112185, 2.267184416006785, 2.6309718739939854, 3.15471695701126, 3.775120706995949]","[0.6272082500508986, 0.1641387920244597, 0.1279712080140598, 0.13594262499827892, 0.14404350001132116, 0.16002249997109175, 0.1402051670011133]",up,4.112160332035273,None,210.8929188749753,210.8999869590043,211.1564446669654,211.14753487496637,211.14936508395476,211.1564446669654,,212.18761649995577,,212.18107041699113,1,5,211.1564446669654,212.18761649995577,,,,,,,,,,,,,,,,,,,,,kahini,patients,A,2026-03-24_16h41.25.379,asymmetry_final,2024.2.4,120,2026-03-24 16h41.58.434959 -0400,
30,30,0,1,1,baseline,23,2.3,0.06,3.0,0.14,flat,flat_curv,0.0,0.0,-0.06,rew,input_data/stims/Shape_2.30_3.00.png,input_data/stims/Shape_4.00_2.00.png,input_data/stims/Shape_0.00_2.00.png,1,-1,1.0,1.0,1,up,4.250499791000038,None,up,0.946328874968458,None,None,None,['left'],[0.5347689160262235],[0.5872644999762997],up,2.15541241603205,None,0,0,0,0,0,30,30,23,212.18761649995577,,,,,,,,,,,,,,,,,212.1820628339774,0.0009759999811649323,213.12408641696675,213.12413387495326,213.15645883395337,214.29553304199362,214.29045266698813,214.2907038339763,0.0002542910515330732,215.68270341696916,215.6840181669686,215.74467599997297,215.74467599997297,215.74467599997297,215.74467599997297,215.74467599997297,215.74467599997297,215.74467599997297,217.90956845897017,"[0.14, 0.14, 0.14, 0.14, 0.14, 0.14, 0.14, 0.14, 0.14, 0.14, 0.14, 0.14, 0.14, 0.14, 0.14, 0.14, 0.14, 0.14, 0.14, 0.14, 0.14, 0.14, 0.14, 0.14, 0.14, 0.14, 0.14, 0.14, 0.14, 0.14, 0.14, 0.14, 0.14, 0.14, 0.14, 0.14, 0.14, 0.14, 0.14, 0.14, 0.14, 0.14, 0.14, 0.14, 0.14, 0.14, 0.14, 0.14, 0.14, 0.14, 0.14, 0.14, 0.136, 0.132, 0.128, 0.124, 0.12, 0.116, 0.112, 0.108, 0.104, 0.1, 0.096, 0.092, 0.088, 0.084, 0.08, 0.076, 0.072, 0.068, 0.064, 0.06, 0.056, 0.052, 0.048, 0.044, 0.04, 0.036, 0.032, 0.028, 0.024, 0.02, 0.016, 0.012, 0.008, 0.004, 0.0, -0.004, -0.008, -0.012, -0.016, -0.02, -0.024, -0.028, -0.032, -0.036, -0.04, -0.044, -0.048, -0.048, -0.048, -0.048, -0.048, -0.048, -0.048, -0.048, -0.048, -0.048, -0.048, -0.048, -0.048, -0.048, -0.048, -0.048, -0.048, -0.048, -0.048, -0.048, -0.048, -0.048, -0.048, -0.048, -0.048, -0.048, -0.048, -0.048, -0.048, -0.048, -0.048, -0.048, -0.048, -0.048, -0.048, -0.048, -0.048, -0.048, -0.048, -0.048, -0.048, -0.048, -0.048, -0.048, -0.048, -0.048, -0.048, -0.048, -0.048, -0.048, -0.048, -0.048, -0.048, -0.048, -0.048, -0.048, -0.048, -0.048, -0.048, -0.048, -0.048, -0.048, -0.048, -0.048, -0.048, -0.048, -0.048, -0.048, -0.048, -0.048, -0.048, -0.048, -0.048, -0.048, -0.048, -0.048, -0.048, -0.048, -0.048, -0.048, -0.048, -0.048, -0.048, -0.048, -0.048, -0.048, -0.048, -0.048, -0.048, -0.048]",None,None,['left'],[0.5347689160262235],[0.5872644999762997],up,2.15541241603205,None,217.91005237499485,217.91680145898135,218.17139574995963,218.16443145897938,218.16454241698375,218.17139574995963,,219.24666404200252,,219.23809224995784,1,5,218.17139574995963,219.24666404200252,,,,,,,,,,,,,,,,,,,,,kahini,patients,A,2026-03-24_16h41.25.379,asymmetry_final,2024.2.4,120,2026-03-24 16h41.58.434959 -0400,
31,31,0,1,1,baseline,19,1.9,-0.02,3.0,0.316,curv,flat_curv,0.0,0.0,0.02,pen,input_data/stims/Shape_1.90_3.00.png,input_data/stims/Shape_4.00_2.00.png,input_data/stims/Shape_0.00_2.00.png,-1,-1,1.0,1.0,-1,up,4.250499791000038,None,up,0.946328874968458,None,None,None,['left'],[0.5324154989793897],[1.0352862090221606],up,1.7918174989754334,None,0,0,0,0,0,31,31,19,219.24666404200252,,,,,,,,,,,,,,,,,219.2389540419681,0.0008377499761991203,220.33091216697358,220.33096633397508,220.36338983400492,221.64670958399074,221.63936029199976,221.63963204197353,0.00027670798590406775,223.13159033400007,223.1328954169876,223.19558474997757,223.19558474997757,223.19558474997757,223.19558474997757,223.19558474997757,223.19558474997757,223.19558474997757,225.00021179200849,"[0.316, 0.316, 0.316, 0.316, 0.316, 0.316, 0.316, 0.316, 0.316, 0.316, 0.316, 0.316, 0.316, 0.316, 0.316, 0.316, 0.316, 0.316, 0.316, 0.316, 0.316, 0.316, 0.316, 0.316, 0.316, 0.316, 0.316, 0.316, 0.316, 0.316, 0.316, 0.316, 0.316, 0.316, 0.316, 0.316, 0.316, 0.316, 0.316, 0.316, 0.316, 0.316, 0.316, 0.316, 0.312, 0.308, 0.304, 0.3, 0.296, 0.292, 0.288, 0.284, 0.28, 0.276, 0.272, 0.268, 0.264, 0.26, 0.256, 0.252, 0.248, 0.244, 0.24, 0.236, 0.232, 0.228, 0.224, 0.22, 0.216, 0.212, 0.208, 0.204, 0.2, 0.196, 0.192, 0.188, 0.184, 0.18, 0.176, 0.172, 0.168, 0.164, 0.16, 0.156, 0.152, 0.148, 0.144, 0.14, 0.136, 0.132, 0.128, 0.124, 0.12, 0.116, 0.112, 0.108, 0.104, 0.1, 0.096, 0.092, 0.088, 0.084, 0.08, 0.076, 0.072, 0.068, 0.064, 0.06, 0.056, 0.052, 0.048, 0.044, 0.04, 0.036, 0.032, 0.028, 0.024, 0.02, 0.016, 0.012, 0.008, 0.004, 0.0, -0.004, -0.008, -0.012, -0.016, -0.02, -0.02, -0.02, -0.02, -0.02, -0.02, -0.02, -0.02, -0.02, -0.02, -0.02, -0.02, -0.02, -0.02, -0.02, -0.02, -0.02, -0.02, -0.02, -0.02]",None,None,['left'],[0.5324154989793897],[1.0352862090221606],up,1.7918174989754334,None,225.00099379196763,225.00984462496126,225.2636041669757,225.25199625000823,225.25210174999665,225.2636041669757,,226.26353879197268,,226.25335633399663,0,-5,,,,,225.2636041669757,226.26353879197268,,,,,,,,,,,,,,,,,kahini,patients,A,2026-03-24_16h41.25.379,asymmetry_final,2024.2.4,120,2026-03-24 16h41.58.434959 -0400,
32,32,0,1,1,baseline,13,1.3,-0.14,3.0,-0.36,curv,flat_curv,0.0,0.0,0.14,pen,input_data/stims/Shape_1.30_3.00.png,input_data/stims/Shape_4.00_2.00.png,input_data/stims/Shape_0.00_2.00.png,-1,-1,-1.0,1.0,-1,up,4.250499791000038,None,up,0.946328874968458,None,None,None,"['right', 'right']","[0.5772172500146553, 1.2657893750001676]","[0.6349430829868652, 0.3438725830055773]",up,1.7834573330474086,None,0,0,0,0,0,32,32,13,226.26353879197268,,,,,,,,,,,,,,,,,226.2542167499778,0.0008410000009462237,227.34618695895188,227.34624341700692,227.37883075000718,228.4400011249818,228.43278633395676,228.43303783400916,0.00025291601195931435,229.7750087089953,229.77620458399178,229.84157324995613,229.84157324995613,229.84157324995613,229.84157324995613,229.84157324995613,229.84157324995613,229.84157324995613,231.63364258396905,"[-0.36, -0.36, -0.36, -0.36, -0.36, -0.36, -0.36, -0.36, -0.36, -0.36, -0.36, -0.36, -0.36, -0.36, -0.36, -0.36, -0.36, -0.36, -0.36, -0.36, -0.36, -0.36, -0.36, -0.36, -0.36, -0.36, -0.36, -0.36, -0.36, -0.36, -0.36, -0.36, -0.36, -0.36, -0.36, -0.36, -0.36, -0.36, -0.36, -0.36, -0.36, -0.36, -0.36, -0.36, -0.36, -0.36, -0.36, -0.36, -0.36, -0.36, -0.356, -0.352, -0.348, -0.344, -0.34, -0.336, -0.332, -0.328, -0.324, -0.32, -0.316, -0.312, -0.308, -0.304, -0.3, -0.296, -0.292, -0.288, -0.284, -0.28, -0.276, -0.272, -0.268, -0.264, -0.26, -0.256, -0.252, -0.248, -0.244, -0.24, -0.236, -0.232, -0.228, -0.224, -0.22, -0.216, -0.212, -0.208, -0.204, -0.2, -0.196, -0.192, -0.188, -0.184, -0.18, -0.176, -0.172, -0.168, -0.164, -0.164, -0.164, -0.164, -0.164, -0.164, -0.16, -0.156, -0.152, -0.148, -0.144, -0.14, -0.136, -0.132, -0.128, -0.124, -0.12, -0.116, -0.112, -0.108, -0.104, -0.1, -0.096, -0.092, -0.088, -0.084, -0.08, -0.076, -0.072, -0.068, -0.064, -0.06, -0.056, -0.052, -0.048, -0.048, -0.048, -0.048, -0.048, -0.048, -0.048, -0.048, -0.048, -0.048, -0.048, -0.048, -0.048, -0.048, -0.048, -0.048]",None,None,"['right', 'right']","[0.5772172500146553, 1.2657893750001676]","[0.6349430829868652, 0.3438725830055773]",up,1.7834573330474086,None,231.63406829198357,231.64156458398793,231.88802858395502,231.88087674998678,231.88096149999183,231.88802858395502,,232.8879642089596,,232.88133249996463,0,-5,,,,,231.88802858395502,232.8879642089596,,,,,,,,,,,,,,,,,kahini,patients,A,2026-03-24_16h41.25.379,asymmetry_final,2024.2.4,120,2026-03-24 16h41.58.434959 -0400,
33,33,0,1,1,baseline,6,0.7,-0.26,3.0,0.124,curv,curv_flat,0.0,0.0,-0.26,pen,input_data/stims/Shape_0.70_3.00.png,input_data/stims/Shape_0.00_2.00.png,input_data/stims/Shape_4.00_2.00.png,-1,1,1.0,1.0,-1,up,4.250499791000038,None,up,0.946328874968458,None,None,None,['left'],[0.4883540410082787],[0.5122099589789286],up,1.0938186250277795,None,0,0,0,0,0,33,33,6,232.8879642089596,,,,,,,,,,,,,,,,,232.88227966695558,0.0009304999839514494,233.8743448339519,233.87439916696167,233.9125359589816,234.98728758399375,234.9822651669965,234.98258362500928,0.00032191601349040866,236.4745643339702,236.47583795897663,236.5382000419777,236.5382000419777,236.5382000419777,236.5382000419777,236.5382000419777,236.5382000419777,236.5382000419777,237.64347908395575,"[0.124, 0.124, 0.124, 0.124, 0.124, 0.124, 0.124, 0.124, 0.124, 0.124, 0.124, 0.124, 0.124, 0.124, 0.124, 0.124, 0.124, 0.124, 0.124, 0.124, 0.124, 0.124, 0.124, 0.124, 0.124, 0.124, 0.124, 0.124, 0.124, 0.124, 0.124, 0.124, 0.124, 0.124, 0.124, 0.124, 0.124, 0.124, 0.124, 0.124, 0.124, 0.12, 0.116, 0.112, 0.108, 0.104, 0.1, 0.096, 0.092, 0.088, 0.084, 0.08, 0.076, 0.072, 0.068, 0.064, 0.06, 0.056, 0.052, 0.048, 0.044, 0.04, 0.036, 0.032, 0.028, 0.024, 0.02, 0.016, 0.012, 0.008, 0.004, 0.0, -0.004, -0.008, -0.012, -0.016, -0.02, -0.024, -0.028, -0.032, -0.036, -0.04, -0.044, -0.048, -0.052, -0.052, -0.052, -0.052, -0.052, -0.052, -0.052, -0.052, -0.052]",None,None,['left'],[0.4883540410082787],[0.5122099589789286],up,1.0938186250277795,None,237.64384233398596,237.65056141698733,237.90511945897015,237.8976640419569,237.89777008397505,237.90511945897015,237.90511945897015,238.91350858396618,238.91350858396618,238.9035759170074,1,1,,,,,,,,,,,,,,,,,,,,,,,kahini,patients,A,2026-03-24_16h41.25.379,asymmetry_final,2024.2.4,120,2026-03-24 16h41.58.434959 -0400,
34,34,0,1,1,baseline,1,0.1,-0.38,1.0,-0.192,curv,flat_curv,0.0,0.0,0.38,pen,input_data/stims/Shape_0.10_1.00.png,input_data/stims/Shape_4.00_2.00.png,input_data/stims/Shape_0.00_2.00.png,-1,-1,-1.0,-1.0,-1,up,4.250499791000038,None,up,0.946328874968458,None,None,None,"['right', 'right']","[1.2988164580310695, 1.6843353740405291]","[0.17524083296302706, 0.18008470896165818]",up,2.1172471240279265,None,0,0,0,0,0,34,34,1,238.91350858396618,,,,,,,,,,,,,,,,,238.90442204196006,0.0008303329814225435,239.99634095898364,239.99638450000202,240.02896970900474,241.4476397499675,241.43099716695724,241.43130249995738,0.00031570903956890106,242.87325229198905,242.8746894589858,242.93680845899507,242.93680845899507,242.93680845899507,242.93680845899507,242.93680845899507,242.93680845899507,242.93680845899507,245.0626151249744,"[-0.192, -0.192, -0.192, -0.192, -0.192, -0.192, -0.192, -0.192, -0.192, -0.192, -0.192, -0.192, -0.192, -0.192, -0.192, -0.192, -0.192, -0.192, -0.192, -0.192, -0.192, -0.192, -0.192, -0.192, -0.192, -0.192, -0.192, -0.192, -0.192, -0.192, -0.192, -0.192, -0.192, -0.192, -0.192, -0.192, -0.192, -0.192, -0.192, -0.192, -0.192, -0.192, -0.192, -0.192, -0.192, -0.192, -0.192, -0.192, -0.192, -0.192, -0.192, -0.192, -0.192, -0.192, -0.192, -0.192, -0.192, -0.192, -0.192, -0.192, -0.192, -0.192, -0.192, -0.192, -0.192, -0.192, -0.192, -0.192, -0.192, -0.192, -0.192, -0.192, -0.192, -0.192, -0.192, -0.192, -0.192, -0.192, -0.192, -0.192, -0.192, -0.192, -0.192, -0.192, -0.192, -0.192, -0.192, -0.192, -0.192, -0.192, -0.192, -0.192, -0.192, -0.192, -0.192, -0.192, -0.192, -0.192, -0.192, -0.192, -0.192, -0.192, -0.192, -0.192, -0.192, -0.192, -0.192, -0.192, -0.192, -0.192, -0.192, -0.192, -0.192, -0.192, -0.188, -0.184, -0.18, -0.176, -0.172, -0.168, -0.164, -0.16, -0.156, -0.152, -0.148, -0.144, -0.14, -0.136, -0.136, -0.136, -0.136, -0.136, -0.136, -0.136, -0.136, -0.136, -0.136, -0.136, -0.136, -0.136, -0.136, -0.136, -0.136, -0.136, -0.136, -0.136, -0.136, -0.136, -0.132, -0.128, -0.124, -0.12, -0.116, -0.112, -0.108, -0.104, -0.1, -0.096, -0.092, -0.088, -0.088, -0.088, -0.088, -0.088, -0.088, -0.088, -0.088, -0.088, -0.088, -0.088, -0.088, -0.088, -0.088, -0.088, -0.088, -0.088, -0.088, -0.088, -0.088, -0.088, -0.088, -0.088, -0.088, -0.088, -0.088]",None,None,"['right', 'right']","[1.2988164580310695, 1.6843353740405291]","[0.17524083296302706, 0.18008470896165818]",up,2.1172471240279265,None,245.06310741696507,245.0699787089834,245.32946249999804,245.319902541989,245.31999695900595,245.32946249999804,,246.3303409589571,,246.32041729200864,0,-5,,,,,245.32946249999804,246.3303409589571,,,,,,,,,,,,,,,,,kahini,patients,A,2026-03-24_16h41.25.379,asymmetry_final,2024.2.4,120,2026-03-24 16h41.58.434959 -0400,
35,35,0,1,1,baseline,29,2.9,0.18,3.0,0.28,flat,flat_curv,0.0,0.0,-0.18,rew,input_data/stims/Shape_2.90_3.00.png,input_data/stims/Shape_4.00_2.00.png,input_data/stims/Shape_0.00_2.00.png,1,-1,1.0,1.0,1,up,4.250499791000038,None,up,0.946328874968458,None,None,None,"['left', 'left', 'right', 'right']","[0.7011808740207925, 2.013887415989302, 2.665655581979081, 2.909393748966977]","[0.9110889169969596, 0.15600095799891278, 0.14815225003985688, 0.09994545800145715]",up,3.229913665971253,None,0,0,0,0,0,35,35,29,246.3303409589571,,,,,,,,,,,,,,,,,246.32124012499116,0.0008072500349953771,247.2132304169936,247.2132736669737,247.24361254199175,248.30482258397387,248.29919125000015,248.29954729200108,0.00035975000355392694,249.74151495896513,249.74283674999606,249.80538104195148,249.80538104195148,249.80538104195148,249.80538104195148,249.80538104195148,249.80538104195148,249.80538104195148,253.04081133397995,"[0.28, 0.28, 0.28, 0.28, 0.28, 0.28, 0.28, 0.28, 0.28, 0.28, 0.28, 0.28, 0.28, 0.28, 0.28, 0.28, 0.28, 0.28, 0.28, 0.28, 0.28, 0.28, 0.28, 0.28, 0.28, 0.28, 0.28, 0.28, 0.28, 0.28, 0.28, 0.28, 0.28, 0.28, 0.28, 0.28, 0.28, 0.28, 0.28, 0.28, 0.28, 0.28, 0.28, 0.28, 0.28, 0.28, 0.28, 0.28, 0.28, 0.28, 0.28, 0.28, 0.28, 0.28, 0.28, 0.28, 0.28, 0.28, 0.28, 0.28, 0.28, 0.28, 0.28, 0.28, 0.28, 0.276, 0.272, 0.268, 0.264, 0.26, 0.256, 0.252, 0.248, 0.244, 0.24, 0.236, 0.232, 0.228, 0.224, 0.22, 0.216, 0.212, 0.208, 0.204, 0.2, 0.196, 0.192, 0.188, 0.184, 0.18, 0.176, 0.172, 0.168, 0.164, 0.16, 0.156, 0.152, 0.148, 0.144, 0.14, 0.136, 0.132, 0.128, 0.124, 0.12, 0.116, 0.112, 0.108, 0.104, 0.1, 0.096, 0.092, 0.088, 0.084, 0.08, 0.076, 0.072, 0.068, 0.064, 0.06, 0.056, 0.052, 0.048, 0.044, 0.04, 0.036, 0.032, 0.028, 0.024, 0.02, 0.016, 0.012, 0.008, 0.004, 0.0, -0.004, -0.004, -0.004, -0.004, -0.004, -0.004, -0.004, -0.004, -0.004, -0.004, -0.004, -0.004, -0.004, -0.004, -0.004, -0.004, -0.004, -0.004, -0.004, -0.004, -0.004, -0.004, -0.004, -0.004, -0.004, -0.004, -0.004, -0.004, -0.004, -0.004, -0.004, -0.008, -0.012, -0.016, -0.02, -0.024, -0.028, -0.032, -0.036, -0.04, -0.044, -0.048, -0.052, -0.056, -0.056, -0.056, -0.056, -0.056, -0.056, -0.056, -0.056, -0.056, -0.056, -0.056, -0.056, -0.056, -0.056, -0.056, -0.056, -0.056, -0.056, -0.056, -0.056, -0.056, -0.056, -0.056, -0.056, -0.056, -0.056, -0.056, -0.056, -0.056, -0.056, -0.056, -0.056, -0.056, -0.056, -0.056, -0.056, -0.056, -0.056, -0.056, -0.056, -0.056, -0.056, -0.056, -0.052, -0.048, -0.044, -0.04, -0.036, -0.032, -0.028, -0.024, -0.02, -0.016, -0.012, -0.008, -0.008, -0.008, -0.008, -0.008, -0.008, -0.008, -0.008, -0.008, -0.008, -0.004, 0.0, 0.004, 0.008, 0.012, 0.016, 0.02, 0.02, 0.02, 0.02, 0.02, 0.02, 0.02, 0.02, 0.02, 0.02, 0.02, 0.02, 0.02, 0.02, 0.02, 0.02, 0.02, 0.02, 0.02, 0.02, 0.02]",None,None,"['left', 'left', 'right', 'right']","[0.7011808740207925, 2.013887415989302, 2.665655581979081, 2.909393748966977]","[0.9110889169969596, 0.15600095799891278, 0.14815225003985688, 0.09994545800145715]",up,3.229913665971253,None,253.04138462495757,253.0498692499823,253.30465637496673,253.29791024996666,253.29801491700346,253.30465637496673,,254.30418720899615,,254.2982077919878,0,-1,,,253.30465637496673,254.30418720899615,,,,,,,,,,,,,,,,,,,kahini,patients,A,2026-03-24_16h41.25.379,asymmetry_final,2024.2.4,120,2026-03-24 16h41.58.434959 -0400,
36,36,0,1,1,baseline,32,3.3,0.26,1.0,-0.036,flat,curv_flat,0.0,0.0,0.26,rew,input_data/stims/Shape_3.30_1.00.png,input_data/stims/Shape_0.00_2.00.png,input_data/stims/Shape_4.00_2.00.png,1,1,-1.0,-1.0,1,up,4.250499791000038,None,up,0.946328874968458,None,None,None,['right'],[0.4964388740481809],[0.3593587079667486],up,0.9239824570249766,None,0,0,0,0,0,36,36,32,254.30418720899615,,,,,,,,,,,,,,,,,254.29919866699493,0.0009826250025071204,255.2411212499719,255.2411657499615,255.27384062495548,256.54649783397326,256.5393592499895,256.5396197089576,0.00026591698406264186,257.83157312497497,257.83285604196135,257.90643245895626,257.90643245895626,257.90643245895626,257.90643245895626,257.90643245895626,257.90643245895626,257.90643245895626,258.839247166994,"[-0.036, -0.036, -0.036, -0.036, -0.036, -0.036, -0.036, -0.036, -0.036, -0.036, -0.036, -0.036, -0.036, -0.036, -0.036, -0.036, -0.036, -0.036, -0.036, -0.036, -0.036, -0.036, -0.036, -0.036, -0.036, -0.036, -0.036, -0.036, -0.036, -0.036, -0.036, -0.036, -0.036, -0.036, -0.036, -0.036, -0.036, -0.036, -0.036, -0.036, -0.036, -0.036, -0.036, -0.036, -0.032, -0.028, -0.024, -0.02, -0.016, -0.012, -0.008, -0.004, 0.0, 0.004, 0.008, 0.012, 0.016, 0.02, 0.024, 0.028, 0.032, 0.036, 0.04, 0.044, 0.048, 0.052, 0.056, 0.056, 0.056, 0.056, 0.056, 0.056, 0.056]",None,None,['right'],[0.4964388740481809],[0.3593587079667486],up,0.9239824570249766,None,258.83959133399185,258.86345641699154,259.1216158339521,259.1145664170035,259.1146547499811,259.1216158339521,,260.364155208983,,260.3539344589808,1,5,259.1216158339521,260.364155208983,,,,,,,,,,,,,,,,,,,,,kahini,patients,A,2026-03-24_16h41.25.379,asymmetry_final,2024.2.4,120,2026-03-24 16h41.58.434959 -0400,
37,37,0,1,1,baseline,3,0.3,-0.34,3.0,-0.044,curv,flat_curv,0.0,0.0,0.34,pen,input_data/stims/Shape_0.30_3.00.png,input_data/stims/Shape_4.00_2.00.png,input_data/stims/Shape_0.00_2.00.png,-1,-1,-1.0,1.0,-1,up,4.250499791000038,None,up,0.946328874968458,None,None,None,['right'],[0.6669738739728928],[0.467519583995454],up,1.3665517489425838,None,0,0,0,0,0,37,37,3,260.364155208983,,,,,,,,,,,,,,,,,260.35479899996426,0.0008481249678879976,261.2467276249663,261.2467710839701,261.27886333398055,262.39591862499947,262.3909194589942,262.39118041697657,0.0002662080223672092,263.6832133749849,263.6845325419563,263.7488730420009,263.7488730420009,263.7488730420009,263.7488730420009,263.7488730420009,263.7488730420009,263.7488730420009,265.13357583398465,"[-0.044, -0.044, -0.044, -0.044, -0.044, -0.044, -0.044, -0.044, -0.044, -0.044, -0.044, -0.044, -0.044, -0.044, -0.044, -0.044, -0.044, -0.044, -0.044, -0.044, -0.044, -0.044, -0.044, -0.044, -0.044, -0.044, -0.044, -0.044, -0.044, -0.044, -0.044, -0.044, -0.044, -0.044, -0.044, -0.044, -0.044, -0.044, -0.044, -0.044, -0.044, -0.044, -0.044, -0.044, -0.044, -0.044, -0.044, -0.044, -0.044, -0.044, -0.044, -0.044, -0.044, -0.044, -0.044, -0.044, -0.044, -0.044, -0.044, -0.044, -0.04, -0.036, -0.032, -0.028, -0.024, -0.02, -0.016, -0.012, -0.008, -0.004, 0.0, 0.004, 0.008, 0.012, 0.016, 0.02, 0.024, 0.028, 0.032, 0.036, 0.04, 0.044, 0.048, 0.052, 0.056, 0.06, 0.064, 0.068, 0.072, 0.076, 0.08, 0.084, 0.088, 0.092, 0.092, 0.092, 0.092, 0.092, 0.092, 0.092, 0.092, 0.092, 0.092, 0.092, 0.092, 0.092, 0.092, 0.092, 0.092, 0.092, 0.092, 0.092, 0.092, 0.092, 0.092, 0.092, 0.092, 0.092]",None,None,['right'],[0.6669738739728928],[0.467519583995454],up,1.3665517489425838,None,265.13408320897724,265.1470110839582,265.39699429197935,265.386895041971,265.38700808398426,265.39699429197935,265.39699429197935,266.3977202089736,266.3977202089736,266.3875223340001,1,1,,,,,,,,,,,,,,,,,,,,,,,kahini,patients,A,2026-03-24_16h41.25.379,asymmetry_final,2024.2.4,120,2026-03-24 16h41.58.434959 -0400,
38,38,0,1,1,baseline,10,1.1,-0.18,3.0,-0.128,curv,curv_flat,0.0,0.0,-0.18,pen,input_data/stims/Shape_1.10_3.00.png,input_data/stims/Shape_0.00_2.00.png,input_data/stims/Shape_4.00_2.00.png,-1,1,-1.0,1.0,-1,up,4.250499791000038,None,up,0.946328874968458,None,None,None,['right'],[0.5921605409821495],[0.3038005830021575],up,1.2440739989979193,None,0,0,0,0,0,38,38,10,266.3977202089736,,,,,,,,,,,,,,,,,266.3883690419607,0.0008312499849125743,267.43033858400304,267.4303932089824,267.462155333953,268.53095145896077,268.5244890419999,268.5248067089706,0.0003225000109523535,269.86676612496376,269.8680462499615,269.92915358400205,269.92915358400205,269.92915358400205,269.92915358400205,269.92915358400205,269.92915358400205,269.92915358400205,271.1787187499576,"[-0.128, -0.128, -0.128, -0.128, -0.128, -0.128, -0.128, -0.128, -0.128, -0.128, -0.128, -0.128, -0.128, -0.128, -0.128, -0.128, -0.128, -0.128, -0.128, -0.128, -0.128, -0.128, -0.128, -0.128, -0.128, -0.128, -0.128, -0.128, -0.128, -0.128, -0.128, -0.128, -0.128, -0.128, -0.128, -0.128, -0.128, -0.128, -0.128, -0.128, -0.128, -0.128, -0.128, -0.128, -0.128, -0.128, -0.128, -0.128, -0.128, -0.128, -0.128, -0.128, -0.128, -0.128, -0.128, -0.128, -0.128, -0.128, -0.128, -0.124, -0.12, -0.116, -0.112, -0.108, -0.104, -0.1, -0.096, -0.092, -0.088, -0.084, -0.08, -0.076, -0.072, -0.068, -0.064, -0.06, -0.056, -0.052, -0.048, -0.044, -0.04, -0.036, -0.036, -0.036, -0.036, -0.036, -0.036, -0.036, -0.036, -0.036, -0.036, -0.036, -0.036, -0.036, -0.036, -0.036, -0.036, -0.036, -0.036, -0.036, -0.036, -0.036, -0.036, -0.036, -0.036, -0.036, -0.036, -0.036, -0.036, -0.036, -0.036, -0.036, -0.036, -0.036, -0.036]",None,None,['right'],[0.5921605409821495],[0.3038005830021575],up,1.2440739989979193,None,271.1791116669774,271.18658254196635,271.4377798750065,271.43079712498,271.43088520900346,271.4377798750065,271.4377798750065,272.4876323339995,272.4876323339995,272.48129504197277,1,1,,,,,,,,,,,,,,,,,,,,,,,kahini,patients,A,2026-03-24_16h41.25.379,asymmetry_final,2024.2.4,120,2026-03-24 16h41.58.434959 -0400,
39,39,0,1,1,baseline,2,0.3,-0.34,1.0,-0.228,curv,curv_flat,0.0,0.0,-0.34,pen,input_data/stims/Shape_0.30_1.00.png,input_data/stims/Shape_0.00_2.00.png,input_data/stims/Shape_4.00_2.00.png,-1,1,-1.0,-1.0,-1,up,4.250499791000038,None,up,0.946328874968458,None,None,None,['right'],[0.7597294579609297],[0.6710837910068221],up,1.5487669989815913,None,0,0,0,0,0,39,39,2,272.4876323339995,,,,,,,,,,,,,,,,,272.4822371249902,0.0009177909814752638,273.5242454590043,273.52430116699543,273.5546154169715,274.91313124995213,274.90562325000064,274.90589391696267,0.0002838750369846821,276.3479059590027,276.3492202499765,276.4104089589673,276.4104089589673,276.4104089589673,276.4104089589673,276.4104089589673,276.4104089589673,276.4104089589673,277.9826364169712,"[-0.228, -0.228, -0.228, -0.228, -0.228, -0.228, -0.228, -0.228, -0.228, -0.228, -0.228, -0.228, -0.228, -0.228, -0.228, -0.228, -0.228, -0.228, -0.228, -0.228, -0.228, -0.228, -0.228, -0.228, -0.228, -0.228, -0.228, -0.228, -0.228, -0.228, -0.228, -0.228, -0.228, -0.228, -0.228, -0.228, -0.228, -0.228, -0.228, -0.228, -0.228, -0.228, -0.228, -0.228, -0.228, -0.228, -0.228, -0.228, -0.228, -0.228, -0.228, -0.228, -0.228, -0.228, -0.228, -0.228, -0.228, -0.228, -0.228, -0.228, -0.228, -0.228, -0.228, -0.228, -0.228, -0.228, -0.228, -0.228, -0.228, -0.228, -0.224, -0.22, -0.216, -0.212, -0.208, -0.204, -0.2, -0.196, -0.192, -0.188, -0.184, -0.18, -0.176, -0.172, -0.168, -0.164, -0.16, -0.156, -0.152, -0.148, -0.144, -0.14, -0.136, -0.132, -0.128, -0.124, -0.12, -0.116, -0.112, -0.108, -0.104, -0.1, -0.096, -0.092, -0.088, -0.084, -0.08, -0.076, -0.072, -0.068, -0.064, -0.06, -0.056, -0.052, -0.048, -0.044, -0.04, -0.036, -0.032, -0.028, -0.024, -0.024, -0.024, -0.024, -0.024, -0.024, -0.024, -0.024, -0.024, -0.024, -0.024, -0.024, -0.024]",None,None,['right'],[0.7597294579609297],[0.6710837910068221],up,1.5487669989815913,None,277.98307787498925,277.9973730419879,278.2464859589818,278.2376955419895,278.2377936670091,278.2464859589818,278.2464859589818,279.2791854169918,279.2791854169918,279.23682541697053,1,1,,,,,,,,,,,,,,,,,,,,,,,kahini,patients,A,2026-03-24_16h41.25.379,asymmetry_final,2024.2.4,120,2026-03-24 16h41.58.434959 -0400,
