thisN,thisTrialN,thisRepN,blockN,run,condition,trial_key,stim_file_pos,stim_pos,noise_pos,marker_init,shape,shape_order,true_div,div_pos,target_pos,valence,target_file,img1_file,img2_file,valence_direction,direction,marker_direction,noise_direction,shape_category,valence_resp.keys,valence_resp.rt,valence_resp.duration,block_start_resp.keys,block_start_resp.rt,block_start_resp.duration,marker.response,marker.rt,slider_resp.keys,slider_resp.rt,slider_resp.duration,submit_resp.keys,submit_resp.rt,submit_resp.duration,blocks.thisRepN,blocks.thisTrialN,blocks.thisN,blocks.thisIndex,trials.thisRepN,trials.thisTrialN,trials.thisN,trials.thisIndex,thisRow.t,notes,valence_instruct.started,valence_image.started,valence_text.started,valence_resp.started,valence_instruct.stopped,blocks.valence_resp.keys,blocks.valence_resp.rt,blocks.valence_resp.duration,block_start.started,block_start_text.started,block_start_resp.started,block_start.stopped,blocks.block_start_resp.keys,blocks.block_start_resp.rt,blocks.block_start_resp.duration,baseline.started,ISI1.started,baseline.stopped,stim.started,target_stim.started,target_stim.stopped,stim.stopped,delay.started,ISI2.started,delay.stopped,task.started,img1.started,img2.started,divider_line.started,slider_line.started,marker.started,slider_resp.started,submit_resp.started,task.stopped,positions,trials.marker.response,trials.marker.rt,trials.slider_resp.keys,trials.slider_resp.rt,trials.slider_resp.duration,trials.submit_resp.keys,trials.submit_resp.rt,trials.submit_resp.duration,anticipation.started,anticipation_text.started,anticipation_text.stopped,anticipation.stopped,feedback.started,no_resp_text.started,one_coin.started,no_resp_text.stopped,one_coin.stopped,feedback.stopped,correct,outcome,three_coin.started,three_coin.stopped,one_cross.started,one_cross.stopped,block_end.started,block_end_text.started,block_end_resp.started,block_end.stopped,block_outcome,block_bonus,blocks.block_end_resp.keys,blocks.block_end_resp.rt,blocks.block_end_resp.duration,three_cross.started,three_cross.stopped,subj,difficulty,sess_type,date,expName,psychopyVersion,frameRate,expStart,
0,0,0,4,2,baseline,145,2.5,0.1,1.0,0.244,flat,flat_curv,0.0,0.0,-0.1,pen,input_data/stims/Shape_2.50_1.00.png,input_data/stims/Shape_4.00_2.00.png,input_data/stims/Shape_0.00_2.00.png,-1,-1,1.0,-1.0,1,up,9.390260333020706,None,up,3.009689582977444,None,None,None,['left'],[0.3808820830308832],[0.9680450829910114],up,1.5852458750014193,None,0,0,0,0,0,0,0,25,12.882819749996997,,0.21586387499701232,0.3447379580466077,0.3447379580466077,0.3447379580466077,9.744748292025179,up,9.390260333020706,None,9.753948333032895,9.803540249995422,9.803540249995422,12.817703417036682,up,3.009689582977444,None,12.875604500004556,0.057773917040321976,13.867831458046567,13.867861083010212,13.904485542036127,15.077011292043608,15.071912292041816,15.072114292008337,0.00019870803225785494,16.41391395800747,16.41482862504199,16.49323537503369,16.49323537503369,16.49323537503369,16.49323537503369,16.49323537503369,16.49323537503369,16.49323537503369,18.080462125013582,"[0.244, 0.244, 0.244, 0.244, 0.244, 0.244, 0.244, 0.244, 0.244, 0.244, 0.244, 0.244, 0.244, 0.244, 0.244, 0.244, 0.244, 0.244, 0.244, 0.244, 0.244, 0.244, 0.244, 0.244, 0.244, 0.244, 0.244, 0.244, 0.244, 0.244, 0.244, 0.244, 0.244, 0.244, 0.244, 0.244, 0.244, 0.24, 0.236, 0.232, 0.228, 0.224, 0.22, 0.216, 0.212, 0.208, 0.204, 0.2, 0.196, 0.192, 0.188, 0.184, 0.18, 0.176, 0.172, 0.168, 0.164, 0.16, 0.156, 0.152, 0.148, 0.144, 0.14, 0.136, 0.132, 0.128, 0.124, 0.12, 0.116, 0.112, 0.108, 0.104, 0.1, 0.096, 0.092, 0.088, 0.084, 0.08, 0.076, 0.072, 0.068, 0.064, 0.06, 0.056, 0.052, 0.048, 0.044, 0.04, 0.036, 0.032, 0.028, 0.024, 0.02, 0.016, 0.012, 0.008, 0.004, 0.0, -0.004, -0.008, -0.012, -0.016, -0.02, -0.024, -0.028, -0.032, -0.036, -0.04, -0.044, -0.048, -0.052, -0.056, -0.06, -0.064, -0.068, -0.072, -0.076, -0.08, -0.084, -0.084, -0.084, -0.084, -0.084, -0.084, -0.084, -0.084, -0.084, -0.084, -0.084, -0.084, -0.084, -0.084, -0.084, -0.084, -0.084, -0.084, -0.084, -0.084, -0.084, -0.084, -0.084, -0.084, -0.084]",None,None,['left'],[0.3808820830308832],[0.9680450829910114],up,1.5852458750014193,None,18.080839958041906,18.088683833018877,18.33576470799744,18.326831625017803,18.3269629580318,18.33576470799744,18.33576470799744,19.349694542004727,19.349694542004727,19.34398250002414,1,1,,,,,,,,,,,,,,,,sienna,patients,D,2026-03-24_21h48.42.582,asymmetry_final,2024.2.4,120,2026-03-24 21h49.06.874356 -0400,
1,1,0,4,2,baseline,136,1.7,-0.06,3.0,0.064,curv,curv_flat,0.0,0.0,-0.06,rew,input_data/stims/Shape_1.70_3.00.png,input_data/stims/Shape_0.00_2.00.png,input_data/stims/Shape_4.00_2.00.png,1,1,1.0,1.0,-1,up,9.390260333020706,None,up,3.009689582977444,None,None,None,"['left', 'left']","[0.7727431240491569, 1.3473390830331482]","[0.259464249946177, 0.131992208014708]",up,1.6762909990502521,None,0,0,0,0,0,1,1,16,19.349694542004727,,,,,,,,,,,,,,,,,19.344333208049648,0.0003358329995535314,20.2361515420489,20.236184292007238,20.263388624996878,21.37717975000851,21.36723620799603,21.367482333036605,0.00024508300703018904,22.809430417022668,22.810327458020765,22.872125625028275,22.872125625028275,22.872125625028275,22.872125625028275,22.872125625028275,22.872125625028275,22.872125625028275,24.555309375049546,"[0.064, 0.064, 0.064, 0.064, 0.064, 0.064, 0.064, 0.064, 0.064, 0.064, 0.064, 0.064, 0.064, 0.064, 0.064, 0.064, 0.064, 0.064, 0.064, 0.064, 0.064, 0.064, 0.064, 0.064, 0.064, 0.064, 0.064, 0.064, 0.064, 0.064, 0.064, 0.064, 0.064, 0.064, 0.064, 0.064, 0.064, 0.064, 0.064, 0.064, 0.064, 0.064, 0.064, 0.064, 0.064, 0.064, 0.064, 0.064, 0.064, 0.064, 0.064, 0.064, 0.064, 0.064, 0.064, 0.064, 0.064, 0.064, 0.064, 0.064, 0.064, 0.064, 0.064, 0.064, 0.064, 0.064, 0.064, 0.064, 0.06, 0.056, 0.052, 0.048, 0.044, 0.04, 0.036, 0.032, 0.028, 0.024, 0.02, 0.016, 0.012, 0.008, 0.004, 0.0, -0.004, -0.008, -0.012, -0.012, -0.012, -0.012, -0.012, -0.012, -0.012, -0.012, -0.012, -0.012, -0.012, -0.012, -0.012, -0.012, -0.012, -0.012, -0.012, -0.012, -0.012, -0.012, -0.012, -0.012, -0.012, -0.012, -0.012, -0.012, -0.012, -0.012, -0.016, -0.02, -0.024, -0.028, -0.032, -0.036, -0.04, -0.044, -0.048, -0.052, -0.052, -0.052, -0.052, -0.052, -0.052, -0.052, -0.052, -0.052, -0.052, -0.052, -0.052, -0.052, -0.052, -0.052, -0.052, -0.052, -0.052]",None,None,"['left', 'left']","[0.7727431240491569, 1.3473390830331482]","[0.259464249946177, 0.131992208014708]",up,1.6762909990502521,None,24.555886875023134,24.565578958019614,24.818667458021082,24.810595125018153,24.810694792016875,24.818667458021082,,25.97677658300381,,25.966501875023823,1,5,24.818667458021082,25.97677658300381,,,,,,,,,,,,,,sienna,patients,D,2026-03-24_21h48.42.582,asymmetry_final,2024.2.4,120,2026-03-24 21h49.06.874356 -0400,
2,2,0,4,2,baseline,147,2.7,0.14,3.0,-0.204,flat,flat_curv,0.0,0.0,-0.14,pen,input_data/stims/Shape_2.70_3.00.png,input_data/stims/Shape_4.00_2.00.png,input_data/stims/Shape_0.00_2.00.png,-1,-1,-1.0,1.0,1,up,9.390260333020706,None,up,3.009689582977444,None,None,None,"['right', 'right', 'right']","[0.6868209579843096, 1.0451327079790644, 1.284789917001035]","[0.15924479201203212, 0.14803837501676753, 0.04405174998100847]",up,1.6085542499786243,None,0,0,0,0,0,2,2,27,25.97677658300381,,,,,,,,,,,,,,,,,25.967056083027273,0.0005448329611681402,26.858899250044487,26.858931125025265,26.892038833000697,28.077652167005,28.05640758300433,28.0566347920103,0.00023066700669005513,29.448465417022817,29.4492484999937,29.501879167044535,29.501879167044535,29.501879167044535,29.501879167044535,29.501879167044535,29.501879167044535,29.501879167044535,31.11307941703126,"[-0.204, -0.204, -0.204, -0.204, -0.204, -0.204, -0.204, -0.204, -0.204, -0.204, -0.204, -0.204, -0.204, -0.204, -0.204, -0.204, -0.204, -0.204, -0.204, -0.204, -0.204, -0.204, -0.204, -0.204, -0.204, -0.204, -0.204, -0.204, -0.204, -0.204, -0.204, -0.204, -0.204, -0.204, -0.204, -0.204, -0.204, -0.204, -0.204, -0.204, -0.204, -0.204, -0.204, -0.204, -0.204, -0.204, -0.204, -0.204, -0.204, -0.204, -0.204, -0.204, -0.204, -0.204, -0.204, -0.204, -0.204, -0.204, -0.204, -0.204, -0.204, -0.204, -0.204, -0.204, -0.204, -0.204, -0.2, -0.196, -0.192, -0.188, -0.184, -0.18, -0.176, -0.172, -0.168, -0.164, -0.16, -0.156, -0.156, -0.156, -0.156, -0.156, -0.156, -0.156, -0.156, -0.156, -0.156, -0.156, -0.156, -0.156, -0.156, -0.156, -0.156, -0.156, -0.156, -0.156, -0.152, -0.148, -0.144, -0.14, -0.136, -0.132, -0.128, -0.124, -0.12, -0.116, -0.112, -0.108, -0.108, -0.108, -0.108, -0.108, -0.108, -0.108, -0.108, -0.108, -0.108, -0.104, -0.1, -0.096, -0.092, -0.092, -0.092, -0.092, -0.092, -0.092, -0.092, -0.092, -0.092, -0.092, -0.092, -0.092, -0.092, -0.092, -0.092, -0.092, -0.092, -0.092, -0.092, -0.092, -0.092, -0.092, -0.092, -0.092]",None,None,"['right', 'right', 'right']","[0.6868209579843096, 1.0451327079790644, 1.284789917001035]","[0.15924479201203212, 0.14803837501676753, 0.04405174998100847]",up,1.6085542499786243,None,31.113657625042833,31.120891041995492,31.36711233301321,31.360486958001275,31.360584458045196,31.36711233301321,31.36711233301321,32.650516082998365,32.650516082998365,32.64423612499377,1,1,,,,,,,,,,,,,,,,sienna,patients,D,2026-03-24_21h48.42.582,asymmetry_final,2024.2.4,120,2026-03-24 21h49.06.874356 -0400,
3,3,0,4,2,baseline,148,2.9,0.18,1.0,-0.092,flat,curv_flat,0.0,0.0,0.18,pen,input_data/stims/Shape_2.90_1.00.png,input_data/stims/Shape_0.00_2.00.png,input_data/stims/Shape_4.00_2.00.png,-1,1,-1.0,-1.0,1,up,9.390260333020706,None,up,3.009689582977444,None,None,None,['right'],[0.4577132079866715],[0.9999199580051936],up,1.9125507909920998,None,0,0,0,0,0,3,3,28,32.650516082998365,,,,,,,,,,,,,,,,,32.64516883302713,0.0009508339571766555,33.537084833020344,33.5371183330426,33.56434987502871,34.910742500040215,34.888982167001814,34.88926254201215,0.0002900830004364252,36.33115858299425,36.33194591704523,36.3859961249982,36.3859961249982,36.3859961249982,36.3859961249982,36.3859961249982,36.3859961249982,36.3859961249982,38.30924975004746,"[-0.092, -0.092, -0.092, -0.092, -0.092, -0.092, -0.092, -0.092, -0.092, -0.092, -0.092, -0.092, -0.092, -0.092, -0.092, -0.092, -0.092, -0.092, -0.092, -0.092, -0.092, -0.092, -0.092, -0.092, -0.092, -0.092, -0.092, -0.092, -0.092, -0.092, -0.092, -0.092, -0.092, -0.092, -0.092, -0.092, -0.092, -0.092, -0.092, -0.092, -0.092, -0.092, -0.092, -0.088, -0.084, -0.08, -0.076, -0.072, -0.068, -0.064, -0.06, -0.056, -0.052, -0.048, -0.044, -0.04, -0.036, -0.032, -0.028, -0.024, -0.02, -0.016, -0.012, -0.008, -0.004, 0.0, 0.004, 0.008, 0.012, 0.016, 0.02, 0.024, 0.028, 0.032, 0.036, 0.04, 0.044, 0.048, 0.052, 0.056, 0.06, 0.064, 0.068, 0.072, 0.076, 0.08, 0.084, 0.088, 0.092, 0.096, 0.1, 0.104, 0.108, 0.112, 0.116, 0.12, 0.124, 0.128, 0.132, 0.136, 0.14, 0.144, 0.148, 0.152, 0.156, 0.16, 0.164, 0.168, 0.172, 0.176, 0.18, 0.184, 0.188, 0.192, 0.196, 0.2, 0.204, 0.208, 0.212, 0.216, 0.22, 0.224, 0.228, 0.232, 0.236, 0.24, 0.244, 0.244, 0.244, 0.244, 0.244, 0.244, 0.244, 0.244, 0.244, 0.244, 0.244, 0.244, 0.244, 0.244, 0.244, 0.244, 0.244, 0.244, 0.244, 0.244, 0.244, 0.244, 0.244, 0.244, 0.244, 0.244, 0.244, 0.244, 0.244, 0.244, 0.244, 0.244, 0.244, 0.244, 0.244, 0.244, 0.244, 0.244, 0.244, 0.244, 0.244, 0.244, 0.244]",None,None,['right'],[0.4577132079866715],[0.9999199580051936],up,1.9125507909920998,None,38.309628707997035,38.31607400003122,38.61156074999599,38.594977667031344,38.59507770801429,38.61156074999599,38.61156074999599,39.99942104204092,39.99942104204092,39.993728167028166,1,1,,,,,,,,,,,,,,,,sienna,patients,D,2026-03-24_21h48.42.582,asymmetry_final,2024.2.4,120,2026-03-24 21h49.06.874356 -0400,
4,4,0,4,2,baseline,157,3.7,0.34,3.0,-0.148,flat,flat_curv,0.0,0.0,-0.34,pen,input_data/stims/Shape_3.70_3.00.png,input_data/stims/Shape_4.00_2.00.png,input_data/stims/Shape_0.00_2.00.png,-1,-1,-1.0,1.0,1,up,9.390260333020706,None,up,3.009689582977444,None,None,None,['left'],[0.5325699989916757],[0.259384167031385],up,1.1644589580246247,None,0,0,0,0,0,4,4,37,39.99942104204092,,,,,,,,,,,,,,,,,39.99461058300221,0.0008724579820409417,41.036448166996706,41.03647733305115,41.06500845804112,42.09408525004983,42.087028125009965,42.08734125003684,0.0003172499709762633,43.52920345804887,43.530153750034515,43.58336308301659,43.58336308301659,43.58336308301659,43.58336308301659,43.58336308301659,43.58336308301659,43.58336308301659,44.75611025001854,"[-0.148, -0.148, -0.148, -0.148, -0.148, -0.148, -0.148, -0.148, -0.148, -0.148, -0.148, -0.148, -0.148, -0.148, -0.148, -0.148, -0.148, -0.148, -0.148, -0.148, -0.148, -0.148, -0.148, -0.148, -0.148, -0.148, -0.148, -0.148, -0.148, -0.148, -0.148, -0.148, -0.148, -0.148, -0.148, -0.148, -0.148, -0.148, -0.148, -0.148, -0.148, -0.148, -0.148, -0.148, -0.148, -0.148, -0.148, -0.148, -0.148, -0.148, -0.148, -0.148, -0.148, -0.152, -0.156, -0.16, -0.164, -0.168, -0.172, -0.176, -0.18, -0.184, -0.188, -0.192, -0.196, -0.2, -0.204, -0.208, -0.212, -0.216, -0.22, -0.22, -0.22, -0.22, -0.22, -0.22, -0.22, -0.22, -0.22, -0.22, -0.22, -0.22, -0.22, -0.22, -0.22, -0.22, -0.22, -0.22, -0.22, -0.22, -0.22, -0.22, -0.22, -0.22, -0.22, -0.22, -0.22, -0.22, -0.22, -0.22, -0.22, -0.22, -0.22, -0.22, -0.22]",None,None,['left'],[0.5325699989916757],[0.259384167031385],up,1.1644589580246247,None,44.75648562499555,44.76572716701776,45.02700562501559,45.01649695803644,45.01659558300162,45.02700562501559,45.02700562501559,46.31687816703925,46.31687816703925,46.3108339580358,1,1,,,,,,,,,,,,,,,,sienna,patients,D,2026-03-24_21h48.42.582,asymmetry_final,2024.2.4,120,2026-03-24 21h49.06.874356 -0400,
5,5,0,4,2,baseline,126,0.7,-0.26,3.0,-0.312,curv,curv_flat,0.0,0.0,-0.26,rew,input_data/stims/Shape_0.70_3.00.png,input_data/stims/Shape_0.00_2.00.png,input_data/stims/Shape_4.00_2.00.png,1,1,-1.0,1.0,-1,up,9.390260333020706,None,up,3.009689582977444,None,None,None,"['right', 'right']","[0.7927072909660637, 1.4606585829751566]","[0.43533170799491927, 0.12002683302853256]",up,1.8926077910000458,None,0,0,0,0,0,5,5,6,46.31687816703925,,,,,,,,,,,,,,,,,46.31167845800519,0.0008358329650945961,47.40357458300423,47.403606250009034,47.43288475001464,48.56045679200906,48.55399408302037,48.55423437501304,0.0002467499580234289,50.046045917028096,50.046835708024446,50.099242167023476,50.099242167023476,50.099242167023476,50.099242167023476,50.099242167023476,50.099242167023476,50.099242167023476,51.997953375044744,"[-0.312, -0.312, -0.312, -0.312, -0.312, -0.312, -0.312, -0.312, -0.312, -0.312, -0.312, -0.312, -0.312, -0.312, -0.312, -0.312, -0.312, -0.312, -0.312, -0.312, -0.312, -0.312, -0.312, -0.312, -0.312, -0.312, -0.312, -0.312, -0.312, -0.312, -0.312, -0.312, -0.312, -0.312, -0.312, -0.312, -0.312, -0.312, -0.312, -0.312, -0.312, -0.312, -0.312, -0.312, -0.312, -0.312, -0.312, -0.312, -0.312, -0.312, -0.312, -0.312, -0.312, -0.312, -0.312, -0.312, -0.312, -0.312, -0.312, -0.312, -0.312, -0.312, -0.312, -0.312, -0.312, -0.312, -0.312, -0.312, -0.312, -0.312, -0.308, -0.304, -0.3, -0.296, -0.292, -0.288, -0.284, -0.28, -0.276, -0.272, -0.268, -0.264, -0.26, -0.256, -0.252, -0.248, -0.244, -0.24, -0.236, -0.232, -0.228, -0.224, -0.22, -0.216, -0.212, -0.208, -0.204, -0.2, -0.196, -0.192, -0.188, -0.184, -0.18, -0.176, -0.172, -0.168, -0.168, -0.168, -0.168, -0.168, -0.168, -0.168, -0.168, -0.168, -0.168, -0.168, -0.168, -0.168, -0.168, -0.168, -0.168, -0.168, -0.168, -0.168, -0.168, -0.168, -0.164, -0.16, -0.156, -0.152, -0.148, -0.144, -0.14, -0.136, -0.132, -0.132, -0.132, -0.132, -0.132, -0.132, -0.132, -0.132, -0.132, -0.132, -0.132, -0.132, -0.132, -0.132, -0.132, -0.132, -0.132, -0.132, -0.132, -0.132, -0.132, -0.132, -0.132, -0.132, -0.132, -0.132, -0.132, -0.132, -0.132, -0.132]",None,None,"['right', 'right']","[0.7927072909660637, 1.4606585829751566]","[0.43533170799491927, 0.12002683302853256]",up,1.8926077910000458,None,51.99813633301528,52.003465500019956,52.294655542005785,52.2783572920016,52.27846366702579,52.294655542005785,,53.36639933299739,,53.36048137501348,1,5,52.294655542005785,53.36639933299739,,,,,,,,,,,,,,sienna,patients,D,2026-03-24_21h48.42.582,asymmetry_final,2024.2.4,120,2026-03-24 21h49.06.874356 -0400,
6,6,0,4,2,baseline,159,3.9,0.38,3.0,0.04,flat,flat_curv,0.0,0.0,-0.38,pen,input_data/stims/Shape_3.90_3.00.png,input_data/stims/Shape_4.00_2.00.png,input_data/stims/Shape_0.00_2.00.png,-1,-1,1.0,1.0,1,up,9.390260333020706,None,up,3.009689582977444,None,None,None,"['left', 'left', 'left', 'left', 'left']","[0.43930329103022814, 0.9308137490297668, 1.1968682080041617, 1.4468938740319572, 1.6189002490136772]","[0.46318274998338893, 0.06799845898058265, 0.14400333300000057, 0.12795383401680738, 0.05202112498227507]",up,1.9017925829975866,None,0,0,0,0,0,6,6,39,53.36639933299739,,,,,,,,,,,,,,,,,53.36132716701832,0.0008377499761991203,54.40318195801228,54.40321237500757,54.42963100003544,55.510043458023574,55.50300604203949,55.50324370799353,0.0002440839889459312,56.79513991699787,56.79591733304551,56.84714987501502,56.84714987501502,56.84714987501502,56.84714987501502,56.84714987501502,56.84714987501502,56.84714987501502,58.76033629203448,"[0.04, 0.04, 0.04, 0.04, 0.04, 0.04, 0.04, 0.04, 0.04, 0.04, 0.04, 0.04, 0.04, 0.04, 0.04, 0.04, 0.04, 0.04, 0.04, 0.04, 0.04, 0.04, 0.04, 0.04, 0.04, 0.04, 0.04, 0.04, 0.04, 0.04, 0.04, 0.04, 0.04, 0.04, 0.04, 0.04, 0.04, 0.04, 0.04, 0.04, 0.04, 0.04, 0.04, 0.04, 0.04, 0.04, 0.036, 0.032, 0.028, 0.024, 0.02, 0.016, 0.012, 0.008, 0.004, 0.0, -0.004, -0.008, -0.012, -0.016, -0.02, -0.024, -0.028, -0.032, -0.036, -0.04, -0.044, -0.048, -0.052, -0.056, -0.06, -0.064, -0.068, -0.072, -0.076, -0.08, -0.084, -0.088, -0.092, -0.096, -0.1, -0.104, -0.108, -0.112, -0.116, -0.116, -0.116, -0.12, -0.124, -0.128, -0.132, -0.136, -0.14, -0.14, -0.14, -0.14, -0.14, -0.14, -0.14, -0.14, -0.14, -0.14, -0.14, -0.14, -0.14, -0.14, -0.14, -0.14, -0.14, -0.14, -0.144, -0.148, -0.152, -0.156, -0.16, -0.164, -0.168, -0.172, -0.176, -0.18, -0.18, -0.18, -0.18, -0.18, -0.18, -0.18, -0.18, -0.184, -0.188, -0.192, -0.196, -0.2, -0.204, -0.208, -0.212, -0.216, -0.22, -0.22, -0.22, -0.22, -0.22, -0.224, -0.228, -0.232, -0.236, -0.236, -0.236, -0.236, -0.236, -0.236, -0.236, -0.236, -0.236, -0.236, -0.236, -0.236, -0.236, -0.236, -0.236, -0.236, -0.236, -0.236, -0.236, -0.236, -0.236, -0.236, -0.236, -0.236]",None,None,"['left', 'left', 'left', 'left', 'left']","[0.43930329103022814, 0.9308137490297668, 1.1968682080041617, 1.4468938740319572, 1.6189002490136772]","[0.46318274998338893, 0.06799845898058265, 0.14400333300000057, 0.12795383401680738, 0.05202112498227507]",up,1.9017925829975866,None,58.760803375043906,58.7675960000488,59.017638125049416,59.01081237499602,59.01098350004759,59.017638125049416,59.017638125049416,60.282823832996655,60.282823832996655,60.277214875037316,1,1,,,,,,,,,,,,,,,,sienna,patients,D,2026-03-24_21h48.42.582,asymmetry_final,2024.2.4,120,2026-03-24 21h49.06.874356 -0400,
7,7,0,4,2,baseline,128,0.9,-0.22,3.0,-0.396,curv,curv_flat,0.0,0.0,-0.22,rew,input_data/stims/Shape_0.90_3.00.png,input_data/stims/Shape_0.00_2.00.png,input_data/stims/Shape_4.00_2.00.png,1,1,-1.0,1.0,-1,up,9.390260333020706,None,up,3.009689582977444,None,None,None,['right'],[0.7028449170175008],[0.9677792079746723],up,1.949436750030145,None,0,0,0,0,0,7,7,8,60.282823832996655,,,,,,,,,,,,,,,,,60.27804566704435,0.0008207500213757157,61.369955333007965,61.36998608300928,61.397703249996994,62.46059662499465,62.45401791704353,62.454284250037745,0.0002691670088097453,63.946168625028804,63.94693970802473,63.99727220804198,63.99727220804198,63.99727220804198,63.99727220804198,63.99727220804198,63.99727220804198,63.99727220804198,65.96039083303185,"[-0.396, -0.396, -0.396, -0.396, -0.396, -0.396, -0.396, -0.396, -0.396, -0.396, -0.396, -0.396, -0.396, -0.396, -0.396, -0.396, -0.396, -0.396, -0.396, -0.396, -0.396, -0.396, -0.396, -0.396, -0.396, -0.396, -0.396, -0.396, -0.396, -0.396, -0.396, -0.396, -0.396, -0.396, -0.396, -0.396, -0.396, -0.396, -0.396, -0.396, -0.396, -0.396, -0.396, -0.396, -0.396, -0.396, -0.396, -0.396, -0.396, -0.396, -0.396, -0.396, -0.396, -0.396, -0.396, -0.396, -0.396, -0.396, -0.396, -0.396, -0.396, -0.396, -0.396, -0.396, -0.396, -0.392, -0.388, -0.384, -0.38, -0.376, -0.372, -0.368, -0.364, -0.36, -0.356, -0.352, -0.348, -0.344, -0.34, -0.336, -0.332, -0.328, -0.324, -0.32, -0.316, -0.312, -0.308, -0.304, -0.3, -0.296, -0.292, -0.288, -0.284, -0.28, -0.276, -0.272, -0.268, -0.264, -0.26, -0.256, -0.252, -0.248, -0.244, -0.24, -0.236, -0.232, -0.228, -0.224, -0.22, -0.216, -0.212, -0.208, -0.204, -0.2, -0.196, -0.192, -0.188, -0.184, -0.18, -0.176, -0.172, -0.168, -0.164, -0.16, -0.156, -0.152, -0.148, -0.144, -0.14, -0.136, -0.132, -0.128, -0.124, -0.12, -0.116, -0.112, -0.108, -0.104, -0.1, -0.096, -0.092, -0.088, -0.084, -0.08, -0.076, -0.072, -0.072, -0.072, -0.072, -0.072, -0.072, -0.072, -0.072, -0.072, -0.072, -0.072, -0.072, -0.072, -0.072, -0.072, -0.072, -0.072, -0.072, -0.072, -0.072, -0.072, -0.072, -0.072, -0.072, -0.072, -0.072, -0.072, -0.072, -0.072]",None,None,['right'],[0.7028449170175008],[0.9677792079746723],up,1.949436750030145,None,65.96077125001466,65.96612783300225,66.23451775003923,66.22787008300656,66.22798066702671,66.23451775003923,,67.29382770799566,,67.28338441700907,1,5,66.23451775003923,67.29382770799566,,,,,,,,,,,,,,sienna,patients,D,2026-03-24_21h48.42.582,asymmetry_final,2024.2.4,120,2026-03-24 21h49.06.874356 -0400,
8,8,0,4,2,baseline,125,0.5,-0.3,1.0,0.016,curv,flat_curv,0.0,0.0,0.3,rew,input_data/stims/Shape_0.50_1.00.png,input_data/stims/Shape_4.00_2.00.png,input_data/stims/Shape_0.00_2.00.png,1,-1,1.0,-1.0,-1,up,9.390260333020706,None,up,3.009689582977444,None,None,None,['right'],[0.6061035409802571],[0.9673610420431942],up,1.7374570409883745,None,0,0,0,0,0,8,8,5,67.29382770799566,,,,,,,,,,,,,,,,,67.28408454201417,0.0006864590104669333,68.17597408301663,68.17600433301413,68.20242550002877,69.4024121669936,69.39722995803459,69.39752483303891,0.00030154199339449406,70.88942483300343,70.89034741703654,70.97491158300545,70.97491158300545,70.97491158300545,70.97491158300545,70.97491158300545,70.97491158300545,70.97491158300545,72.71888583304826,"[0.016, 0.016, 0.016, 0.016, 0.016, 0.016, 0.016, 0.016, 0.016, 0.016, 0.016, 0.016, 0.016, 0.016, 0.016, 0.016, 0.016, 0.016, 0.016, 0.016, 0.016, 0.016, 0.016, 0.016, 0.016, 0.016, 0.016, 0.016, 0.016, 0.016, 0.016, 0.016, 0.016, 0.016, 0.016, 0.016, 0.016, 0.016, 0.016, 0.016, 0.016, 0.016, 0.016, 0.016, 0.016, 0.016, 0.016, 0.016, 0.016, 0.016, 0.016, 0.016, 0.016, 0.016, 0.016, 0.016, 0.016, 0.016, 0.02, 0.024, 0.028, 0.032, 0.036, 0.04, 0.044, 0.048, 0.052, 0.056, 0.06, 0.064, 0.068, 0.072, 0.076, 0.08, 0.084, 0.088, 0.092, 0.096, 0.1, 0.104, 0.108, 0.112, 0.116, 0.12, 0.124, 0.128, 0.132, 0.136, 0.14, 0.144, 0.148, 0.152, 0.156, 0.16, 0.164, 0.168, 0.172, 0.176, 0.18, 0.184, 0.188, 0.192, 0.196, 0.2, 0.204, 0.208, 0.212, 0.216, 0.22, 0.224, 0.228, 0.232, 0.236, 0.24, 0.244, 0.248, 0.252, 0.256, 0.26, 0.264, 0.268, 0.272, 0.276, 0.28, 0.284, 0.288, 0.292, 0.296, 0.3, 0.304, 0.308, 0.312, 0.316, 0.32, 0.324, 0.328, 0.332, 0.336, 0.34, 0.344, 0.348, 0.352, 0.356, 0.356, 0.356, 0.356, 0.356, 0.356, 0.356, 0.356, 0.356, 0.356, 0.356, 0.356, 0.356, 0.356, 0.356, 0.356]",None,None,['right'],[0.6061035409802571],[0.9673610420431942],up,1.7374570409883745,None,72.71925558301155,72.72673658304848,72.97784483304713,72.96670579200145,72.96680904203095,72.97784483304713,,74.04391879204195,,74.03434137499426,1,5,72.97784483304713,74.04391879204195,,,,,,,,,,,,,,sienna,patients,D,2026-03-24_21h48.42.582,asymmetry_final,2024.2.4,120,2026-03-24 21h49.06.874356 -0400,
9,9,0,4,2,baseline,122,0.3,-0.34,1.0,-0.096,curv,curv_flat,0.0,0.0,-0.34,rew,input_data/stims/Shape_0.30_1.00.png,input_data/stims/Shape_0.00_2.00.png,input_data/stims/Shape_4.00_2.00.png,1,1,-1.0,-1.0,-1,up,9.390260333020706,None,up,3.009689582977444,None,None,None,['left'],[0.711482957995031],[0.467285750026349],up,1.384394249995239,None,0,0,0,0,0,9,9,2,74.04391879204195,,,,,,,,,,,,,,,,,74.03505308303284,0.0006985000218264759,75.07691208302276,75.07694279204588,75.10350033303257,76.14917154202703,76.14420983300079,76.14444404200185,0.00024612504057586193,77.58635329204844,77.5871322080493,77.63497358304448,77.63497358304448,77.63497358304448,77.63497358304448,77.63497358304448,77.63497358304448,77.63497358304448,79.02683041704586,"[-0.096, -0.096, -0.096, -0.096, -0.096, -0.096, -0.096, -0.096, -0.096, -0.096, -0.096, -0.096, -0.096, -0.096, -0.096, -0.096, -0.096, -0.096, -0.096, -0.096, -0.096, -0.096, -0.096, -0.096, -0.096, -0.096, -0.096, -0.096, -0.096, -0.096, -0.096, -0.096, -0.096, -0.096, -0.096, -0.096, -0.096, -0.096, -0.096, -0.096, -0.096, -0.096, -0.096, -0.096, -0.096, -0.096, -0.096, -0.096, -0.096, -0.096, -0.096, -0.096, -0.096, -0.096, -0.096, -0.096, -0.096, -0.096, -0.096, -0.096, -0.096, -0.096, -0.096, -0.096, -0.096, -0.096, -0.096, -0.096, -0.1, -0.104, -0.108, -0.112, -0.116, -0.12, -0.124, -0.128, -0.132, -0.136, -0.14, -0.144, -0.148, -0.152, -0.156, -0.16, -0.164, -0.168, -0.172, -0.176, -0.18, -0.184, -0.188, -0.192, -0.196, -0.2, -0.204, -0.208, -0.212, -0.216, -0.22, -0.224, -0.228, -0.232, -0.236, -0.24, -0.244, -0.248, -0.252, -0.256, -0.256, -0.256, -0.256, -0.256, -0.256, -0.256, -0.256, -0.256, -0.256, -0.256, -0.256, -0.256, -0.256, -0.256, -0.256, -0.256, -0.256, -0.256, -0.256, -0.256]",None,None,['left'],[0.711482957995031],[0.467285750026349],up,1.384394249995239,None,79.02723966701888,79.03413008304778,79.29404012503801,79.28397225000663,79.28406687499955,79.29404012503801,,80.30069370800629,,80.2946239580051,1,5,79.29404012503801,80.30069370800629,,,,,,,,,,,,,,sienna,patients,D,2026-03-24_21h48.42.582,asymmetry_final,2024.2.4,120,2026-03-24 21h49.06.874356 -0400,
10,10,0,4,2,baseline,121,0.1,-0.38,1.0,-0.004,curv,flat_curv,0.0,0.0,0.38,rew,input_data/stims/Shape_0.10_1.00.png,input_data/stims/Shape_4.00_2.00.png,input_data/stims/Shape_0.00_2.00.png,1,-1,-1.0,-1.0,-1,up,9.390260333020706,None,up,3.009689582977444,None,None,None,"['right', 'right']","[0.4992279579746537, 1.403046625026036]","[0.5391697090235539, 0.10802599997259676]",up,1.7485947500099428,None,0,0,0,0,0,10,10,1,80.30069370800629,,,,,,,,,,,,,,,,,80.29544345801696,0.0008041659602895379,81.18728754203767,81.18731891701464,81.21470566705102,82.30112895800266,82.29601241700584,82.29628204205073,0.00027883396251127124,83.78825370804407,83.78910108300624,83.83674633305054,83.83674633305054,83.83674633305054,83.83674633305054,83.83674633305054,83.83674633305054,83.83674633305054,85.59642495802836,"[-0.004, -0.004, -0.004, -0.004, -0.004, -0.004, -0.004, -0.004, -0.004, -0.004, -0.004, -0.004, -0.004, -0.004, -0.004, -0.004, -0.004, -0.004, -0.004, -0.004, -0.004, -0.004, -0.004, -0.004, -0.004, -0.004, -0.004, -0.004, -0.004, -0.004, -0.004, -0.004, -0.004, -0.004, -0.004, -0.004, -0.004, -0.004, -0.004, -0.004, -0.004, -0.004, -0.004, -0.004, -0.004, 0.0, 0.004, 0.008, 0.012, 0.016, 0.02, 0.024, 0.028, 0.032, 0.036, 0.04, 0.044, 0.048, 0.052, 0.056, 0.06, 0.064, 0.068, 0.072, 0.076, 0.08, 0.084, 0.088, 0.092, 0.096, 0.1, 0.104, 0.108, 0.112, 0.116, 0.12, 0.124, 0.128, 0.132, 0.136, 0.14, 0.144, 0.148, 0.152, 0.156, 0.16, 0.164, 0.168, 0.172, 0.176, 0.176, 0.176, 0.176, 0.176, 0.176, 0.176, 0.176, 0.176, 0.176, 0.176, 0.176, 0.176, 0.176, 0.176, 0.176, 0.176, 0.176, 0.176, 0.176, 0.176, 0.176, 0.176, 0.176, 0.176, 0.176, 0.176, 0.176, 0.176, 0.176, 0.176, 0.176, 0.176, 0.176, 0.176, 0.176, 0.18, 0.184, 0.188, 0.192, 0.196, 0.2, 0.204, 0.208, 0.212, 0.216, 0.216, 0.216, 0.216, 0.216, 0.216, 0.216, 0.216, 0.216, 0.216, 0.216, 0.216, 0.216, 0.216, 0.216, 0.216, 0.216, 0.216, 0.216, 0.216, 0.216]",None,None,"['right', 'right']","[0.4992279579746537, 1.403046625026036]","[0.5391697090235539, 0.10802599997259676]",up,1.7485947500099428,None,85.59691908303648,85.60395637503825,85.85136625001905,85.84475204203045,85.84481070801849,85.85136625001905,,86.89415454200935,,86.88383754203096,1,5,85.85136625001905,86.89415454200935,,,,,,,,,,,,,,sienna,patients,D,2026-03-24_21h48.42.582,asymmetry_final,2024.2.4,120,2026-03-24 21h49.06.874356 -0400,
11,11,0,4,2,baseline,149,2.9,0.18,1.0,0.296,flat,flat_curv,0.0,0.0,-0.18,pen,input_data/stims/Shape_2.90_1.00.png,input_data/stims/Shape_4.00_2.00.png,input_data/stims/Shape_0.00_2.00.png,-1,-1,1.0,-1.0,1,up,9.390260333020706,None,up,3.009689582977444,None,None,None,"['left', 'left']","[0.40125012397766113, 1.8636572489631362]","[1.107409042015206, 0.12407862499821931]",up,2.329052998975385,None,0,0,0,0,0,11,11,29,86.89415454200935,,,,,,,,,,,,,,,,,86.88454637501854,0.000693499983754009,87.9264387920266,87.92646841704845,87.9521339579951,88.96913416701136,88.96380345802754,88.96415458299452,0.0003626249963417649,90.40606383304112,90.40683879202697,90.45644954201998,90.45644954201998,90.45644954201998,90.45644954201998,90.45644954201998,90.45644954201998,90.45644954201998,92.79106104199309,"[0.296, 0.296, 0.296, 0.296, 0.296, 0.296, 0.296, 0.296, 0.296, 0.296, 0.296, 0.296, 0.296, 0.296, 0.296, 0.296, 0.296, 0.296, 0.296, 0.296, 0.296, 0.296, 0.296, 0.296, 0.296, 0.296, 0.296, 0.296, 0.296, 0.296, 0.296, 0.296, 0.296, 0.296, 0.296, 0.296, 0.296, 0.296, 0.296, 0.296, 0.296, 0.296, 0.292, 0.288, 0.284, 0.28, 0.276, 0.272, 0.268, 0.264, 0.26, 0.256, 0.252, 0.248, 0.244, 0.24, 0.236, 0.232, 0.228, 0.224, 0.22, 0.216, 0.212, 0.208, 0.204, 0.2, 0.196, 0.192, 0.188, 0.184, 0.18, 0.176, 0.172, 0.168, 0.164, 0.16, 0.156, 0.152, 0.148, 0.144, 0.14, 0.136, 0.132, 0.128, 0.124, 0.12, 0.116, 0.112, 0.108, 0.104, 0.1, 0.096, 0.092, 0.088, 0.084, 0.08, 0.076, 0.072, 0.068, 0.064, 0.06, 0.056, 0.052, 0.048, 0.044, 0.04, 0.036, 0.032, 0.028, 0.024, 0.02, 0.016, 0.012, 0.008, 0.004, 0.0, -0.004, -0.008, -0.012, -0.016, -0.02, -0.024, -0.028, -0.032, -0.036, -0.04, -0.044, -0.048, -0.052, -0.056, -0.06, -0.064, -0.068, -0.072, -0.076, -0.08, -0.084, -0.088, -0.092, -0.096, -0.1, -0.104, -0.104, -0.104, -0.104, -0.104, -0.104, -0.104, -0.104, -0.104, -0.104, -0.104, -0.104, -0.104, -0.104, -0.104, -0.104, -0.104, -0.104, -0.104, -0.104, -0.104, -0.104, -0.104, -0.104, -0.104, -0.104, -0.104, -0.104, -0.104, -0.104, -0.104, -0.104, -0.108, -0.112, -0.116, -0.12, -0.124, -0.128, -0.132, -0.136, -0.14, -0.144, -0.144, -0.144, -0.144, -0.144, -0.144, -0.144, -0.144, -0.144, -0.144, -0.144, -0.144, -0.144, -0.144, -0.144, -0.144, -0.144, -0.144, -0.144, -0.144, -0.144, -0.144, -0.144, -0.144, -0.144, -0.144, -0.144, -0.144, -0.144, -0.144, -0.144]",None,None,"['left', 'left']","[0.40125012397766113, 1.8636572489631362]","[1.107409042015206, 0.12407862499821931]",up,2.329052998975385,None,92.79156395804603,92.79996566701448,93.05105700000422,93.04470162501093,93.04481525003212,93.05105700000422,93.05105700000422,94.16683920804644,94.16683920804644,94.16098825004883,1,1,,,,,,,,,,,,,,,,sienna,patients,D,2026-03-24_21h48.42.582,asymmetry_final,2024.2.4,120,2026-03-24 21h49.06.874356 -0400,
12,12,0,4,2,baseline,133,1.3,-0.14,3.0,-0.144,curv,flat_curv,0.0,0.0,0.14,rew,input_data/stims/Shape_1.30_3.00.png,input_data/stims/Shape_4.00_2.00.png,input_data/stims/Shape_0.00_2.00.png,1,-1,-1.0,1.0,-1,up,9.390260333020706,None,up,3.009689582977444,None,None,None,"['right', 'left']","[0.49834466603351757, 1.172690291015897]","[0.4913192499661818, 0.3199466670048423]",up,1.6428732490167022,None,0,0,0,0,0,12,12,13,94.16683920804644,,,,,,,,,,,,,,,,,94.16183854202973,0.000838249980006367,95.05373979202705,95.05377295799553,95.08080016699387,96.07693229202414,96.06960287503898,96.0698730830336,0.0002770000137388706,97.56175691704266,97.56252695800504,97.61324987502303,97.61324987502303,97.61324987502303,97.61324987502303,97.61324987502303,97.61324987502303,97.61324987502303,99.26274616701994,"[-0.144, -0.144, -0.144, -0.144, -0.144, -0.144, -0.144, -0.144, -0.144, -0.144, -0.144, -0.144, -0.144, -0.144, -0.144, -0.144, -0.144, -0.144, -0.144, -0.144, -0.144, -0.144, -0.144, -0.144, -0.144, -0.144, -0.144, -0.144, -0.144, -0.144, -0.144, -0.144, -0.144, -0.144, -0.144, -0.144, -0.144, -0.144, -0.144, -0.144, -0.144, -0.144, -0.144, -0.144, -0.144, -0.144, -0.144, -0.14, -0.136, -0.132, -0.128, -0.124, -0.12, -0.116, -0.112, -0.108, -0.104, -0.1, -0.096, -0.092, -0.088, -0.084, -0.08, -0.076, -0.072, -0.068, -0.064, -0.06, -0.056, -0.052, -0.048, -0.044, -0.04, -0.036, -0.032, -0.028, -0.024, -0.02, -0.016, -0.012, -0.008, -0.004, 0.0, 0.004, 0.008, 0.012, 0.012, 0.012, 0.012, 0.012, 0.012, 0.012, 0.012, 0.012, 0.012, 0.012, 0.012, 0.012, 0.012, 0.012, 0.008, 0.004, 0.0, -0.004, -0.008, -0.012, -0.016, -0.02, -0.024, -0.028, -0.032, -0.036, -0.04, -0.044, -0.048, -0.052, -0.056, -0.06, -0.064, -0.068, -0.072, -0.076, -0.08, -0.084, -0.088, -0.092, -0.096, -0.1, -0.104, -0.104, -0.104, -0.104, -0.104, -0.104, -0.104, -0.104, -0.104, -0.104, -0.104, -0.104, -0.104, -0.104, -0.104, -0.104]",None,None,"['right', 'left']","[0.49834466603351757, 1.172690291015897]","[0.4913192499661818, 0.3199466670048423]",up,1.6428732490167022,None,99.26323316700291,99.27723837504163,99.5273512499989,99.51679679204244,99.51688366703456,99.5273512499989,,100.910980708024,,100.90159100003075,0,-1,,,99.5273512499989,100.910980708024,,,,,,,,,,,,sienna,patients,D,2026-03-24_21h48.42.582,asymmetry_final,2024.2.4,120,2026-03-24 21h49.06.874356 -0400,
13,13,0,4,2,baseline,137,1.7,-0.06,1.0,0.296,curv,flat_curv,0.0,0.0,0.06,rew,input_data/stims/Shape_1.70_1.00.png,input_data/stims/Shape_4.00_2.00.png,input_data/stims/Shape_0.00_2.00.png,1,-1,1.0,-1.0,-1,up,9.390260333020706,None,up,3.009689582977444,None,None,None,"['right', 'left']","[0.3851005830219947, 0.6701292490470223]","[0.07916883297730237, 1.0801323339692317]",up,2.020495333010331,None,0,0,0,0,0,13,13,17,100.910980708024,,,,,,,,,,,,,,,,,100.9019947500201,0.00039929203921929,101.94378583302023,101.94381295802305,101.96963554201648,102.96617783303373,102.96068208303768,102.96089704200858,0.00022570800501853228,104.25275420804974,104.25351629202487,104.30395191704156,104.30395191704156,104.30395191704156,104.30395191704156,104.30395191704156,104.30395191704156,104.30395191704156,106.3332709580427,"[0.296, 0.296, 0.296, 0.296, 0.296, 0.296, 0.296, 0.296, 0.296, 0.296, 0.296, 0.296, 0.296, 0.296, 0.296, 0.296, 0.296, 0.296, 0.296, 0.296, 0.296, 0.296, 0.296, 0.296, 0.296, 0.296, 0.296, 0.296, 0.296, 0.296, 0.296, 0.296, 0.296, 0.296, 0.296, 0.296, 0.296, 0.296, 0.296, 0.296, 0.3, 0.304, 0.308, 0.312, 0.316, 0.32, 0.324, 0.324, 0.324, 0.324, 0.324, 0.324, 0.324, 0.324, 0.324, 0.324, 0.324, 0.324, 0.324, 0.324, 0.324, 0.324, 0.324, 0.324, 0.324, 0.324, 0.324, 0.32, 0.316, 0.312, 0.308, 0.304, 0.3, 0.296, 0.292, 0.288, 0.284, 0.28, 0.276, 0.272, 0.268, 0.264, 0.26, 0.256, 0.252, 0.248, 0.244, 0.24, 0.236, 0.232, 0.228, 0.224, 0.22, 0.216, 0.212, 0.208, 0.204, 0.2, 0.196, 0.192, 0.188, 0.184, 0.18, 0.176, 0.172, 0.168, 0.164, 0.16, 0.156, 0.152, 0.148, 0.144, 0.14, 0.136, 0.132, 0.128, 0.124, 0.12, 0.116, 0.112, 0.108, 0.104, 0.1, 0.096, 0.092, 0.088, 0.084, 0.08, 0.076, 0.072, 0.068, 0.064, 0.06, 0.056, 0.052, 0.048, 0.044, 0.04, 0.036, 0.032, 0.028, 0.024, 0.02, 0.016, 0.012, 0.008, 0.004, 0.0, -0.004, -0.008, -0.012, -0.016, -0.02, -0.024, -0.028, -0.032, -0.036, -0.036, -0.036, -0.036, -0.036, -0.036, -0.036, -0.036, -0.036, -0.036, -0.036, -0.036, -0.036, -0.036, -0.036, -0.036, -0.036, -0.036, -0.036, -0.036, -0.036, -0.036, -0.036, -0.036, -0.036, -0.036, -0.036]",None,None,"['right', 'left']","[0.3851005830219947, 0.6701292490470223]","[0.07916883297730237, 1.0801323339692317]",up,2.020495333010331,None,106.33374816703144,106.34082241699798,106.59412662504474,106.5829708329984,106.58306299999822,106.59412662504474,,107.99480145802954,,107.97876337502385,0,-1,,,106.59412662504474,107.99480145802954,,,,,,,,,,,,sienna,patients,D,2026-03-24_21h48.42.582,asymmetry_final,2024.2.4,120,2026-03-24 21h49.06.874356 -0400,
14,14,0,4,2,baseline,150,3.1,0.22,3.0,0.032,flat,curv_flat,0.0,0.0,0.22,pen,input_data/stims/Shape_3.10_3.00.png,input_data/stims/Shape_0.00_2.00.png,input_data/stims/Shape_4.00_2.00.png,-1,1,1.0,1.0,1,up,9.390260333020706,None,up,3.009689582977444,None,None,None,['right'],[0.7083436669781804],[0.47941587504465133],up,1.3945187500212342,None,0,0,0,0,0,14,14,30,107.99480145802954,,,,,,,,,,,,,,,,,107.97959141700994,0.0008229580125771463,109.07144933304517,109.07147958304267,109.09717854199698,110.11035441700369,110.10475733299972,110.10502991703106,0.0002834589686244726,111.4469277500175,111.44779141701292,111.50415637501283,111.50415637501283,111.50415637501283,111.50415637501283,111.50415637501283,111.50415637501283,111.50415637501283,112.90561641700333,"[0.032, 0.032, 0.032, 0.032, 0.032, 0.032, 0.032, 0.032, 0.032, 0.032, 0.032, 0.032, 0.032, 0.032, 0.032, 0.032, 0.032, 0.032, 0.032, 0.032, 0.032, 0.032, 0.032, 0.032, 0.032, 0.032, 0.032, 0.032, 0.032, 0.032, 0.032, 0.032, 0.032, 0.032, 0.032, 0.032, 0.032, 0.032, 0.032, 0.032, 0.032, 0.032, 0.032, 0.032, 0.032, 0.032, 0.032, 0.032, 0.032, 0.032, 0.032, 0.032, 0.032, 0.032, 0.032, 0.032, 0.032, 0.032, 0.032, 0.032, 0.032, 0.032, 0.032, 0.032, 0.032, 0.036, 0.04, 0.044, 0.048, 0.052, 0.056, 0.06, 0.064, 0.068, 0.072, 0.076, 0.08, 0.084, 0.088, 0.092, 0.096, 0.1, 0.104, 0.108, 0.112, 0.116, 0.12, 0.124, 0.128, 0.132, 0.136, 0.14, 0.144, 0.148, 0.152, 0.156, 0.16, 0.164, 0.168, 0.172, 0.176, 0.18, 0.184, 0.188, 0.192, 0.196, 0.196, 0.196, 0.196, 0.196, 0.196, 0.196, 0.196, 0.196, 0.196, 0.196, 0.196, 0.196, 0.196, 0.196, 0.196, 0.196, 0.196, 0.196, 0.196, 0.196]",None,None,['right'],[0.7083436669781804],[0.47941587504465133],up,1.3945187500212342,None,112.90603208303219,112.91594395803986,113.16765595803736,113.16104033304146,113.16113108303398,113.16765595803736,113.16765595803736,114.16678641701583,114.16678641701583,114.16120962501736,1,1,,,,,,,,,,,,,,,,sienna,patients,D,2026-03-24_21h48.42.582,asymmetry_final,2024.2.4,120,2026-03-24 21h49.06.874356 -0400,
15,15,0,4,2,baseline,154,3.5,0.3,3.0,-0.244,flat,curv_flat,0.0,0.0,0.3,pen,input_data/stims/Shape_3.50_3.00.png,input_data/stims/Shape_0.00_2.00.png,input_data/stims/Shape_4.00_2.00.png,-1,1,-1.0,1.0,1,up,9.390260333020706,None,up,3.009689582977444,None,None,None,"['right', 'right']","[0.3219369580037892, 2.0808088750345632]","[1.703441042045597, 0.08395470801042393]",up,2.376028083031997,None,0,0,0,0,0,15,15,34,114.16678641701583,,,,,,,,,,,,,,,,,114.1621514169965,0.000943667022511363,115.05404770805035,115.05407841701526,115.0802058330155,116.09407466702396,116.08606554201106,116.0863316670293,0.00027299998328089714,117.478208000015,117.47896366700297,117.52983412501635,117.52983412501635,117.52983412501635,117.52983412501635,117.52983412501635,117.52983412501635,117.52983412501635,119.91408904199488,"[-0.244, -0.244, -0.244, -0.244, -0.244, -0.244, -0.244, -0.244, -0.244, -0.244, -0.244, -0.244, -0.244, -0.244, -0.244, -0.244, -0.244, -0.244, -0.244, -0.244, -0.244, -0.244, -0.244, -0.244, -0.244, -0.244, -0.244, -0.244, -0.244, -0.244, -0.244, -0.244, -0.244, -0.24, -0.236, -0.232, -0.228, -0.224, -0.22, -0.216, -0.212, -0.208, -0.204, -0.2, -0.196, -0.192, -0.188, -0.184, -0.18, -0.176, -0.172, -0.168, -0.164, -0.16, -0.156, -0.152, -0.148, -0.144, -0.14, -0.136, -0.132, -0.128, -0.124, -0.12, -0.116, -0.112, -0.108, -0.104, -0.1, -0.096, -0.092, -0.088, -0.084, -0.08, -0.076, -0.072, -0.068, -0.064, -0.06, -0.056, -0.052, -0.048, -0.044, -0.04, -0.036, -0.032, -0.028, -0.024, -0.02, -0.016, -0.012, -0.008, -0.004, 0.0, 0.004, 0.008, 0.012, 0.016, 0.02, 0.024, 0.028, 0.032, 0.036, 0.04, 0.044, 0.048, 0.052, 0.056, 0.06, 0.064, 0.068, 0.072, 0.076, 0.08, 0.084, 0.088, 0.092, 0.096, 0.1, 0.104, 0.108, 0.112, 0.116, 0.12, 0.124, 0.128, 0.132, 0.136, 0.14, 0.144, 0.148, 0.152, 0.156, 0.16, 0.164, 0.168, 0.172, 0.176, 0.18, 0.184, 0.188, 0.192, 0.196, 0.2, 0.204, 0.208, 0.212, 0.216, 0.22, 0.224, 0.228, 0.232, 0.236, 0.24, 0.244, 0.248, 0.252, 0.256, 0.26, 0.264, 0.268, 0.272, 0.276, 0.28, 0.284, 0.288, 0.292, 0.296, 0.3, 0.304, 0.308, 0.312, 0.316, 0.32, 0.324, 0.324, 0.324, 0.324, 0.324, 0.324, 0.328, 0.332, 0.336, 0.34, 0.344, 0.348, 0.352, 0.356, 0.356, 0.356, 0.356, 0.356, 0.356, 0.356, 0.356, 0.356, 0.356, 0.356, 0.356, 0.356, 0.356, 0.356, 0.356, 0.356, 0.356, 0.356, 0.356]",None,None,"['right', 'right']","[0.3219369580037892, 2.0808088750345632]","[1.703441042045597, 0.08395470801042393]",up,2.376028083031997,None,119.91460029204609,119.92153383302502,120.16792441700818,120.16160441702232,120.16170754202176,120.16792441700818,120.16792441700818,121.16718033299549,121.16718033299549,121.16128400003072,1,1,,,,,,,,,,,,,,,,sienna,patients,D,2026-03-24_21h48.42.582,asymmetry_final,2024.2.4,120,2026-03-24 21h49.06.874356 -0400,
16,16,0,4,2,baseline,127,0.7,-0.26,3.0,-0.228,curv,flat_curv,0.0,0.0,0.26,rew,input_data/stims/Shape_0.70_3.00.png,input_data/stims/Shape_4.00_2.00.png,input_data/stims/Shape_0.00_2.00.png,1,-1,-1.0,1.0,-1,up,9.390260333020706,None,up,3.009689582977444,None,None,None,['right'],[0.49862570798723027],[0.7435592499678023],up,1.494729375001043,None,0,0,0,0,0,16,16,7,121.16718033299549,,,,,,,,,,,,,,,,,121.16219320800155,0.0008629580261185765,122.20409375004238,122.20412245800253,122.23080804204801,123.23229958303273,123.22712237504311,123.227396375034,0.00028316600946709514,124.71929916704539,124.72021804202814,124.76898704201449,124.76898704201449,124.76898704201449,124.76898704201449,124.76898704201449,124.76898704201449,124.76898704201449,126.28060966701014,"[-0.228, -0.228, -0.228, -0.228, -0.228, -0.228, -0.228, -0.228, -0.228, -0.228, -0.228, -0.228, -0.228, -0.228, -0.228, -0.228, -0.228, -0.228, -0.228, -0.228, -0.228, -0.228, -0.228, -0.228, -0.228, -0.228, -0.228, -0.228, -0.228, -0.228, -0.228, -0.228, -0.228, -0.228, -0.228, -0.228, -0.228, -0.228, -0.228, -0.228, -0.228, -0.228, -0.228, -0.228, -0.228, -0.228, -0.228, -0.228, -0.228, -0.224, -0.22, -0.216, -0.212, -0.208, -0.204, -0.2, -0.196, -0.192, -0.188, -0.184, -0.18, -0.176, -0.172, -0.168, -0.164, -0.16, -0.156, -0.152, -0.148, -0.144, -0.14, -0.136, -0.132, -0.128, -0.124, -0.12, -0.116, -0.112, -0.108, -0.104, -0.1, -0.096, -0.092, -0.088, -0.084, -0.08, -0.076, -0.072, -0.068, -0.064, -0.06, -0.056, -0.052, -0.048, -0.044, -0.04, -0.036, -0.032, -0.028, -0.024, -0.02, -0.016, -0.012, -0.008, -0.004, 0.0, 0.004, 0.008, 0.012, 0.016, 0.02, 0.024, 0.028, 0.032, 0.032, 0.032, 0.032, 0.032, 0.032, 0.032, 0.032, 0.032, 0.032, 0.032, 0.032, 0.032, 0.032, 0.032, 0.032, 0.032, 0.032, 0.032, 0.032, 0.032, 0.032, 0.032, 0.032]",None,None,['right'],[0.49862570798723027],[0.7435592499678023],up,1.494729375001043,None,126.28116162499646,126.2888953750371,126.53429583302932,126.5279273330234,126.52801708300831,126.53429583302932,,127.64429225004278,,127.63440170802642,1,5,126.53429583302932,127.64429225004278,,,,,,,,,,,,,,sienna,patients,D,2026-03-24_21h48.42.582,asymmetry_final,2024.2.4,120,2026-03-24 21h49.06.874356 -0400,
17,17,0,4,2,baseline,138,1.9,-0.02,1.0,0.056,curv,curv_flat,0.0,0.0,-0.02,rew,input_data/stims/Shape_1.90_1.00.png,input_data/stims/Shape_0.00_2.00.png,input_data/stims/Shape_4.00_2.00.png,1,1,1.0,-1.0,-1,up,9.390260333020706,None,up,3.009689582977444,None,None,None,['left'],[1.3071427079848945],[0.49108145799255],up,2.044203707948327,None,0,0,0,0,0,17,17,18,127.64429225004278,,,,,,,,,,,,,,,,,127.63513675000286,0.0007212090422399342,128.72696308302693,128.72699258301873,128.7533072080114,129.76578237500507,129.76082050002879,129.76103545801016,0.00022666697623208165,131.05288241704693,131.05379937501857,131.10328775004018,131.10328775004018,131.10328775004018,131.10328775004018,131.10328775004018,131.10328775004018,131.10328775004018,133.15130300004967,"[0.056, 0.056, 0.056, 0.056, 0.056, 0.056, 0.056, 0.056, 0.056, 0.056, 0.056, 0.056, 0.056, 0.056, 0.056, 0.056, 0.056, 0.056, 0.056, 0.056, 0.056, 0.056, 0.056, 0.056, 0.056, 0.056, 0.056, 0.056, 0.056, 0.056, 0.056, 0.056, 0.056, 0.056, 0.056, 0.056, 0.056, 0.056, 0.056, 0.056, 0.056, 0.056, 0.056, 0.056, 0.056, 0.056, 0.056, 0.056, 0.056, 0.056, 0.056, 0.056, 0.056, 0.056, 0.056, 0.056, 0.056, 0.056, 0.056, 0.056, 0.056, 0.056, 0.056, 0.056, 0.056, 0.056, 0.056, 0.056, 0.056, 0.056, 0.056, 0.056, 0.056, 0.056, 0.056, 0.056, 0.056, 0.056, 0.056, 0.056, 0.056, 0.056, 0.056, 0.056, 0.056, 0.056, 0.056, 0.056, 0.056, 0.056, 0.056, 0.056, 0.056, 0.056, 0.056, 0.056, 0.056, 0.056, 0.056, 0.056, 0.056, 0.056, 0.056, 0.056, 0.056, 0.056, 0.056, 0.056, 0.056, 0.056, 0.056, 0.056, 0.056, 0.056, 0.056, 0.056, 0.056, 0.056, 0.056, 0.056, 0.056, 0.056, 0.052, 0.048, 0.044, 0.04, 0.036, 0.032, 0.028, 0.024, 0.02, 0.016, 0.012, 0.008, 0.004, 0.0, -0.004, -0.008, -0.012, -0.016, -0.02, -0.024, -0.028, -0.032, -0.036, -0.04, -0.044, -0.048, -0.052, -0.056, -0.06, -0.064, -0.068, -0.072, -0.076, -0.08, -0.084, -0.088, -0.092, -0.096, -0.1, -0.104, -0.108, -0.112, -0.116, -0.12, -0.124, -0.124, -0.124, -0.124, -0.124, -0.124, -0.124, -0.124, -0.124, -0.124, -0.124, -0.124, -0.124, -0.124, -0.124, -0.124, -0.124, -0.124, -0.124, -0.124, -0.124, -0.124, -0.124]",None,None,['left'],[1.3071427079848945],[0.49108145799255],up,2.044203707948327,None,133.15151629201137,133.1571037080139,133.42772658303147,133.41616212500958,133.41625708300853,133.42772658303147,,134.5611790830153,,134.5512591250008,1,5,133.42772658303147,134.5611790830153,,,,,,,,,,,,,,sienna,patients,D,2026-03-24_21h48.42.582,asymmetry_final,2024.2.4,120,2026-03-24 21h49.06.874356 -0400,
18,18,0,4,2,baseline,123,0.3,-0.34,1.0,-0.204,curv,flat_curv,0.0,0.0,0.34,rew,input_data/stims/Shape_0.30_1.00.png,input_data/stims/Shape_4.00_2.00.png,input_data/stims/Shape_0.00_2.00.png,1,-1,-1.0,-1.0,-1,up,9.390260333020706,None,up,3.009689582977444,None,None,None,"['right', 'right', 'right']","[0.4300560000119731, 1.7887823330238461, 1.9860794579726644]","[1.091942041006405, 0.09982554195448756, 0.0999834579997696]",up,2.2961345000076108,None,0,0,0,0,0,18,18,3,134.5611790830153,,,,,,,,,,,,,,,,,134.55212370801019,0.0008484589634463191,135.59402370802127,135.59405708301347,135.62128608301282,136.62755666702287,136.618678458035,136.6189482920454,0.0002787910052575171,138.0108212500345,138.011583583022,138.06218483304838,138.06218483304838,138.06218483304838,138.06218483304838,138.06218483304838,138.06218483304838,138.06218483304838,140.36047208303353,"[-0.204, -0.204, -0.204, -0.204, -0.204, -0.204, -0.204, -0.204, -0.204, -0.204, -0.204, -0.204, -0.204, -0.204, -0.204, -0.204, -0.204, -0.204, -0.204, -0.204, -0.204, -0.204, -0.204, -0.204, -0.204, -0.204, -0.204, -0.204, -0.204, -0.204, -0.204, -0.204, -0.204, -0.204, -0.204, -0.204, -0.204, -0.204, -0.204, -0.204, -0.204, -0.204, -0.204, -0.2, -0.196, -0.192, -0.188, -0.184, -0.18, -0.176, -0.172, -0.168, -0.164, -0.16, -0.156, -0.152, -0.148, -0.144, -0.14, -0.136, -0.132, -0.128, -0.124, -0.12, -0.116, -0.112, -0.108, -0.104, -0.1, -0.096, -0.092, -0.088, -0.084, -0.08, -0.076, -0.072, -0.068, -0.064, -0.06, -0.056, -0.052, -0.048, -0.044, -0.04, -0.036, -0.032, -0.028, -0.024, -0.02, -0.016, -0.012, -0.008, -0.004, 0.0, 0.004, 0.008, 0.012, 0.016, 0.02, 0.024, 0.028, 0.032, 0.036, 0.04, 0.044, 0.048, 0.052, 0.056, 0.06, 0.064, 0.068, 0.072, 0.076, 0.08, 0.084, 0.088, 0.092, 0.096, 0.1, 0.104, 0.108, 0.112, 0.116, 0.12, 0.124, 0.128, 0.132, 0.136, 0.14, 0.144, 0.148, 0.152, 0.156, 0.16, 0.164, 0.168, 0.172, 0.176, 0.176, 0.176, 0.176, 0.176, 0.176, 0.176, 0.176, 0.176, 0.176, 0.176, 0.176, 0.176, 0.176, 0.176, 0.176, 0.176, 0.176, 0.176, 0.176, 0.176, 0.176, 0.176, 0.176, 0.176, 0.176, 0.176, 0.176, 0.18, 0.184, 0.188, 0.192, 0.196, 0.2, 0.204, 0.208, 0.208, 0.208, 0.208, 0.208, 0.208, 0.208, 0.208, 0.208, 0.208, 0.208, 0.212, 0.216, 0.22, 0.224, 0.228, 0.232, 0.236, 0.24, 0.244, 0.244, 0.244, 0.244, 0.244, 0.244, 0.244, 0.244, 0.244, 0.244, 0.244, 0.244, 0.244, 0.244, 0.244, 0.244, 0.244, 0.244, 0.244]",None,None,"['right', 'right', 'right']","[0.4300560000119731, 1.7887823330238461, 1.9860794579726644]","[1.091942041006405, 0.09982554195448756, 0.0999834579997696]",up,2.2961345000076108,None,140.3609890420339,140.3674990000436,140.6357779170503,140.6286261670175,140.62874162499793,140.6357779170503,,141.66134020802565,,141.65127837500768,1,5,140.6357779170503,141.66134020802565,,,,,,,,,,,,,,sienna,patients,D,2026-03-24_21h48.42.582,asymmetry_final,2024.2.4,120,2026-03-24 21h49.06.874356 -0400,
19,19,0,4,2,baseline,158,3.9,0.38,3.0,0.284,flat,curv_flat,0.0,0.0,0.38,pen,input_data/stims/Shape_3.90_3.00.png,input_data/stims/Shape_0.00_2.00.png,input_data/stims/Shape_4.00_2.00.png,-1,1,1.0,1.0,1,up,9.390260333020706,None,up,3.009689582977444,None,None,None,"['left', 'left']","[0.8881383329862729, 1.2901249160058796]","[0.1436944580054842, 0.10397945897420868]",up,1.530493124970235,None,0,0,0,0,0,19,19,38,141.66134020802565,,,,,,,,,,,,,,,,,141.65173029201105,0.0004368749796412885,142.69359425001312,142.69362483301666,142.71892425004626,143.71623058302794,143.71106891700765,143.71132750000106,0.0002817499917000532,145.05320804199437,145.05404870799975,145.1041647500242,145.1041647500242,145.1041647500242,145.1041647500242,145.1041647500242,145.1041647500242,145.1041647500242,146.6433606670471,"[0.284, 0.284, 0.284, 0.284, 0.284, 0.284, 0.284, 0.284, 0.284, 0.284, 0.284, 0.284, 0.284, 0.284, 0.284, 0.284, 0.284, 0.284, 0.284, 0.284, 0.284, 0.284, 0.284, 0.284, 0.284, 0.284, 0.284, 0.284, 0.284, 0.284, 0.284, 0.284, 0.284, 0.284, 0.284, 0.284, 0.284, 0.284, 0.284, 0.284, 0.284, 0.284, 0.284, 0.284, 0.284, 0.284, 0.284, 0.284, 0.284, 0.284, 0.284, 0.284, 0.284, 0.284, 0.284, 0.284, 0.284, 0.284, 0.284, 0.284, 0.284, 0.284, 0.284, 0.284, 0.284, 0.284, 0.284, 0.284, 0.284, 0.284, 0.284, 0.284, 0.284, 0.284, 0.284, 0.284, 0.284, 0.284, 0.284, 0.284, 0.284, 0.284, 0.284, 0.28, 0.276, 0.272, 0.268, 0.264, 0.26, 0.256, 0.252, 0.248, 0.244, 0.24, 0.236, 0.232, 0.232, 0.232, 0.232, 0.232, 0.232, 0.232, 0.232, 0.232, 0.232, 0.232, 0.232, 0.232, 0.232, 0.232, 0.232, 0.232, 0.232, 0.232, 0.232, 0.232, 0.232, 0.232, 0.232, 0.232, 0.232, 0.228, 0.224, 0.22, 0.216, 0.212, 0.208, 0.204, 0.2, 0.196, 0.196, 0.196, 0.196, 0.196, 0.196, 0.196, 0.196, 0.196, 0.196, 0.196, 0.196, 0.196, 0.196]",None,None,"['left', 'left']","[0.8881383329862729, 1.2901249160058796]","[0.1436944580054842, 0.10397945897420868]",up,1.530493124970235,None,146.64379058300983,146.65032716700807,146.90175516699674,146.89518508303445,146.8952785000438,146.90175516699674,146.90175516699674,147.90006983303465,147.90006983303465,147.89491633302532,1,1,,,,,,,,,,,,,,,,sienna,patients,D,2026-03-24_21h48.42.582,asymmetry_final,2024.2.4,120,2026-03-24 21h49.06.874356 -0400,
20,20,0,4,2,baseline,143,2.3,0.06,3.0,-0.208,flat,flat_curv,0.0,0.0,-0.06,pen,input_data/stims/Shape_2.30_3.00.png,input_data/stims/Shape_4.00_2.00.png,input_data/stims/Shape_0.00_2.00.png,-1,-1,-1.0,1.0,1,up,9.390260333020706,None,up,3.009689582977444,None,None,None,"['right', 'left', 'left', 'left']","[0.7941843330045231, 1.3728270410210826, 1.616211040993221, 1.8088506250060163]","[0.29126529197674245, 0.10784366697771475, 0.10804583400022238, 0.07190687500406057]",up,2.0499792079790495,None,0,0,0,0,0,20,20,23,147.90006983303465,,,,,,,,,,,,,,,,,147.89574925001943,0.0008225000347010791,148.88761645799968,148.88764479203383,148.91336270800093,149.91090833302587,149.90255258302204,149.90281637501903,0.00027012499049305916,151.39474300004076,151.39552270801505,151.44743487500818,151.44743487500818,151.44743487500818,151.44743487500818,151.44743487500818,151.44743487500818,151.44743487500818,153.51147345802747,"[-0.208, -0.208, -0.208, -0.208, -0.208, -0.208, -0.208, -0.208, -0.208, -0.208, -0.208, -0.208, -0.208, -0.208, -0.208, -0.208, -0.208, -0.208, -0.208, -0.208, -0.208, -0.208, -0.208, -0.208, -0.208, -0.208, -0.208, -0.208, -0.208, -0.208, -0.208, -0.208, -0.208, -0.208, -0.208, -0.208, -0.208, -0.208, -0.208, -0.208, -0.208, -0.208, -0.208, -0.208, -0.208, -0.208, -0.208, -0.208, -0.208, -0.208, -0.208, -0.208, -0.208, -0.208, -0.208, -0.208, -0.208, -0.208, -0.208, -0.208, -0.208, -0.208, -0.208, -0.208, -0.208, -0.208, -0.208, -0.208, -0.208, -0.208, -0.208, -0.208, -0.208, -0.208, -0.208, -0.208, -0.208, -0.208, -0.204, -0.2, -0.196, -0.192, -0.188, -0.184, -0.18, -0.176, -0.172, -0.168, -0.164, -0.16, -0.156, -0.152, -0.148, -0.144, -0.14, -0.136, -0.132, -0.128, -0.124, -0.12, -0.116, -0.112, -0.108, -0.108, -0.108, -0.108, -0.108, -0.108, -0.108, -0.108, -0.108, -0.108, -0.108, -0.108, -0.108, -0.108, -0.108, -0.108, -0.108, -0.108, -0.108, -0.108, -0.108, -0.108, -0.108, -0.108, -0.108, -0.108, -0.108, -0.108, -0.112, -0.116, -0.12, -0.124, -0.128, -0.132, -0.136, -0.14, -0.144, -0.148, -0.148, -0.148, -0.148, -0.148, -0.148, -0.148, -0.148, -0.148, -0.148, -0.148, -0.152, -0.156, -0.16, -0.164, -0.168, -0.172, -0.176, -0.18, -0.18, -0.18, -0.18, -0.18, -0.18, -0.18, -0.184, -0.188, -0.192, -0.196, -0.2, -0.2, -0.2, -0.2, -0.2, -0.2, -0.2, -0.2, -0.2, -0.2, -0.2, -0.2, -0.2, -0.2, -0.2, -0.2, -0.2, -0.2]",None,None,"['right', 'left', 'left', 'left']","[0.7941843330045231, 1.3728270410210826, 1.616211040993221, 1.8088506250060163]","[0.29126529197674245, 0.10784366697771475, 0.10804583400022238, 0.07190687500406057]",up,2.0499792079790495,None,153.51188550004736,153.51629350002622,153.76810237503378,153.76139383303234,153.7616500420263,153.76810237503378,153.76810237503378,154.79459750000387,154.79459750000387,154.78358091705013,1,1,,,,,,,,,,,,,,,,sienna,patients,D,2026-03-24_21h48.42.582,asymmetry_final,2024.2.4,120,2026-03-24 21h49.06.874356 -0400,
21,21,0,4,2,baseline,131,1.1,-0.18,1.0,0.004,curv,flat_curv,0.0,0.0,0.18,rew,input_data/stims/Shape_1.10_1.00.png,input_data/stims/Shape_4.00_2.00.png,input_data/stims/Shape_0.00_2.00.png,1,-1,1.0,-1.0,-1,up,9.390260333020706,None,up,3.009689582977444,None,None,None,"['right', 'left', 'right']","[0.5093303329776973, 0.9411172909894958, 1.385917583014816]","[0.13603129104012623, 0.11201058299047872, 0.08797474997118115]",up,1.597126540960744,None,0,0,0,0,0,21,21,11,154.79459750000387,,,,,,,,,,,,,,,,,154.78429083304945,0.0006949999951757491,155.8761337500182,155.87616279203212,155.90505979204318,156.9846183329937,156.97838520799996,156.97863708302611,0.0002633749973028898,158.42054712504614,158.42135662504006,158.4708001250401,158.4708001250401,158.4708001250401,158.4708001250401,158.4708001250401,158.4708001250401,158.4708001250401,160.07437704200856,"[0.004, 0.004, 0.004, 0.004, 0.004, 0.004, 0.004, 0.004, 0.004, 0.004, 0.004, 0.004, 0.004, 0.004, 0.004, 0.004, 0.004, 0.004, 0.004, 0.004, 0.004, 0.004, 0.004, 0.004, 0.004, 0.004, 0.004, 0.004, 0.004, 0.004, 0.004, 0.004, 0.004, 0.004, 0.004, 0.004, 0.004, 0.004, 0.004, 0.004, 0.004, 0.004, 0.004, 0.004, 0.004, 0.004, 0.004, 0.004, 0.004, 0.004, 0.004, 0.008, 0.012, 0.016, 0.02, 0.024, 0.028, 0.032, 0.036, 0.04, 0.044, 0.048, 0.048, 0.048, 0.048, 0.048, 0.048, 0.048, 0.048, 0.048, 0.048, 0.048, 0.048, 0.048, 0.048, 0.048, 0.048, 0.048, 0.048, 0.048, 0.048, 0.048, 0.048, 0.048, 0.048, 0.048, 0.048, 0.048, 0.048, 0.048, 0.048, 0.044, 0.04, 0.036, 0.032, 0.028, 0.024, 0.02, 0.016, 0.012, 0.012, 0.012, 0.012, 0.012, 0.012, 0.012, 0.012, 0.012, 0.012, 0.012, 0.012, 0.012, 0.012, 0.012, 0.012, 0.012, 0.012, 0.012, 0.012, 0.012, 0.012, 0.012, 0.012, 0.012, 0.012, 0.012, 0.012, 0.016, 0.02, 0.024, 0.028, 0.032, 0.032, 0.032, 0.032, 0.032, 0.032, 0.032, 0.032, 0.032, 0.032, 0.032, 0.032, 0.032, 0.032]",None,None,"['right', 'left', 'right']","[0.5093303329776973, 0.9411172909894958, 1.385917583014816]","[0.13603129104012623, 0.11201058299047872, 0.08797474997118115]",up,1.597126540960744,None,160.0747432920034,160.08251150004799,160.33425875002285,160.3281595419976,160.3282740000286,160.33425875002285,,161.3336677920306,,161.32810970803257,1,5,160.33425875002285,161.3336677920306,,,,,,,,,,,,,,sienna,patients,D,2026-03-24_21h48.42.582,asymmetry_final,2024.2.4,120,2026-03-24 21h49.06.874356 -0400,
22,22,0,4,2,baseline,134,1.5,-0.1,3.0,-0.152,curv,curv_flat,0.0,0.0,-0.1,rew,input_data/stims/Shape_1.50_3.00.png,input_data/stims/Shape_0.00_2.00.png,input_data/stims/Shape_4.00_2.00.png,1,1,-1.0,1.0,-1,up,9.390260333020706,None,up,3.009689582977444,None,None,None,['right'],[0.5385217500152066],[0.6232740829582326],up,1.4055098330136389,None,0,0,0,0,0,22,22,14,161.3336677920306,,,,,,,,,,,,,,,,,161.32900349999545,0.0008829170255921781,162.320925542037,162.32095516700065,162.34689962503035,163.37767758301925,163.3690569580067,163.369327583001,0.00027712498558685184,164.7611661250121,164.76193341700127,164.81074775004527,164.81074775004527,164.81074775004527,164.81074775004527,164.81074775004527,164.81074775004527,164.81074775004527,166.22656579205068,"[-0.152, -0.152, -0.152, -0.152, -0.152, -0.152, -0.152, -0.152, -0.152, -0.152, -0.152, -0.152, -0.152, -0.152, -0.152, -0.152, -0.152, -0.152, -0.152, -0.152, -0.152, -0.152, -0.152, -0.152, -0.152, -0.152, -0.152, -0.152, -0.152, -0.152, -0.152, -0.152, -0.152, -0.152, -0.152, -0.152, -0.152, -0.152, -0.152, -0.152, -0.152, -0.152, -0.152, -0.152, -0.152, -0.152, -0.152, -0.152, -0.152, -0.152, -0.152, -0.152, -0.152, -0.152, -0.148, -0.144, -0.14, -0.136, -0.132, -0.128, -0.124, -0.12, -0.116, -0.112, -0.108, -0.104, -0.1, -0.096, -0.092, -0.088, -0.084, -0.08, -0.076, -0.072, -0.068, -0.064, -0.06, -0.056, -0.052, -0.048, -0.044, -0.04, -0.036, -0.032, -0.028, -0.024, -0.02, -0.016, -0.012, -0.008, -0.004, 0.0, 0.004, 0.008, 0.012, 0.016, 0.02, 0.024, 0.028, 0.032, 0.036, 0.04, 0.044, 0.048, 0.048, 0.048, 0.048, 0.048, 0.048, 0.048, 0.048, 0.048, 0.048, 0.048, 0.048, 0.048, 0.048, 0.048, 0.048, 0.048, 0.048, 0.048, 0.048, 0.048, 0.048]",None,None,['right'],[0.5385217500152066],[0.6232740829582326],up,1.4055098330136389,None,166.22707866702694,166.2341708750464,166.48432979203062,166.47811154200463,166.47817254200345,166.48432979203062,,167.56128704204457,,167.5498401670484,0,-1,,,166.48432979203062,167.56128704204457,,,,,,,,,,,,sienna,patients,D,2026-03-24_21h48.42.582,asymmetry_final,2024.2.4,120,2026-03-24 21h49.06.874356 -0400,
23,23,0,4,2,baseline,142,2.3,0.06,3.0,-0.028,flat,curv_flat,0.0,0.0,0.06,pen,input_data/stims/Shape_2.30_3.00.png,input_data/stims/Shape_0.00_2.00.png,input_data/stims/Shape_4.00_2.00.png,-1,1,-1.0,1.0,1,up,9.390260333020706,None,up,3.009689582977444,None,None,None,['right'],[0.5989525420009159],[0.683214916032739],up,1.5358652080176398,None,0,0,0,0,0,23,23,22,167.56128704204457,,,,,,,,,,,,,,,,,167.55031383299502,0.00045970798237249255,168.4421787080355,168.442208958033,168.46842362504685,169.46982429199852,169.46439012500923,169.4647189580137,0.00031462498009204865,170.90661895804806,170.9073835000163,170.95592345803743,170.95592345803743,170.95592345803743,170.95592345803743,170.95592345803743,170.95592345803743,170.95592345803743,172.4955738330027,"[-0.028, -0.028, -0.028, -0.028, -0.028, -0.028, -0.028, -0.028, -0.028, -0.028, -0.028, -0.028, -0.028, -0.028, -0.028, -0.028, -0.028, -0.028, -0.028, -0.028, -0.028, -0.028, -0.028, -0.028, -0.028, -0.028, -0.028, -0.028, -0.028, -0.028, -0.028, -0.028, -0.028, -0.028, -0.028, -0.028, -0.028, -0.028, -0.028, -0.028, -0.028, -0.028, -0.028, -0.028, -0.028, -0.028, -0.028, -0.028, -0.028, -0.028, -0.028, -0.028, -0.028, -0.028, -0.028, -0.024, -0.02, -0.016, -0.012, -0.008, -0.004, 0.0, 0.004, 0.008, 0.012, 0.016, 0.02, 0.024, 0.028, 0.032, 0.036, 0.04, 0.044, 0.048, 0.052, 0.056, 0.06, 0.064, 0.068, 0.072, 0.076, 0.08, 0.084, 0.088, 0.092, 0.096, 0.1, 0.104, 0.108, 0.112, 0.116, 0.12, 0.124, 0.128, 0.132, 0.136, 0.14, 0.144, 0.148, 0.152, 0.156, 0.16, 0.164, 0.168, 0.172, 0.176, 0.18, 0.184, 0.188, 0.192, 0.196, 0.2, 0.204, 0.208, 0.212, 0.216, 0.22, 0.22, 0.22, 0.22, 0.22, 0.22, 0.22, 0.22, 0.22, 0.22, 0.22, 0.22, 0.22, 0.22, 0.22, 0.22, 0.22, 0.22, 0.22, 0.22, 0.22, 0.22, 0.22]",None,None,['right'],[0.5989525420009159],[0.683214916032739],up,1.5358652080176398,None,172.49574858299457,172.50033587502548,172.7507564999978,172.74487504200079,172.74496775004081,172.7507564999978,172.7507564999978,173.75095704203704,173.75095704203704,173.74566245800816,1,1,,,,,,,,,,,,,,,,sienna,patients,D,2026-03-24_21h48.42.582,asymmetry_final,2024.2.4,120,2026-03-24 21h49.06.874356 -0400,
24,24,0,4,2,baseline,156,3.7,0.34,3.0,-0.164,flat,curv_flat,0.0,0.0,0.34,pen,input_data/stims/Shape_3.70_3.00.png,input_data/stims/Shape_0.00_2.00.png,input_data/stims/Shape_4.00_2.00.png,-1,1,-1.0,1.0,1,up,9.390260333020706,None,up,3.009689582977444,None,None,None,['right'],[0.3776225410401821],[1.491443624952808],up,2.05316741601564,None,0,0,0,0,0,24,24,36,173.75095704203704,,,,,,,,,,,,,,,,,173.74638075003168,0.000707249972037971,174.6382677500369,174.6382957920432,174.66440629202407,175.686785833037,175.68073991703568,175.68108833301812,0.000361915968824178,176.9730067080236,176.97376512503251,177.0235743750236,177.0235743750236,177.0235743750236,177.0235743750236,177.0235743750236,177.0235743750236,177.0235743750236,179.0784676670446,"[-0.164, -0.164, -0.164, -0.164, -0.164, -0.164, -0.164, -0.164, -0.164, -0.164, -0.164, -0.164, -0.164, -0.164, -0.164, -0.164, -0.164, -0.164, -0.164, -0.164, -0.164, -0.164, -0.164, -0.164, -0.164, -0.164, -0.164, -0.164, -0.164, -0.164, -0.164, -0.164, -0.164, -0.164, -0.164, -0.164, -0.16, -0.156, -0.152, -0.148, -0.144, -0.14, -0.136, -0.132, -0.128, -0.124, -0.12, -0.116, -0.112, -0.108, -0.104, -0.1, -0.096, -0.092, -0.088, -0.084, -0.08, -0.076, -0.072, -0.068, -0.064, -0.06, -0.056, -0.052, -0.048, -0.044, -0.04, -0.036, -0.032, -0.028, -0.024, -0.02, -0.016, -0.012, -0.008, -0.004, 0.0, 0.004, 0.008, 0.012, 0.016, 0.02, 0.024, 0.028, 0.032, 0.036, 0.04, 0.044, 0.048, 0.052, 0.056, 0.06, 0.064, 0.068, 0.072, 0.076, 0.08, 0.084, 0.088, 0.092, 0.096, 0.1, 0.104, 0.108, 0.112, 0.116, 0.12, 0.124, 0.128, 0.132, 0.136, 0.14, 0.144, 0.148, 0.152, 0.156, 0.16, 0.164, 0.168, 0.172, 0.176, 0.18, 0.184, 0.188, 0.192, 0.196, 0.2, 0.204, 0.208, 0.212, 0.216, 0.22, 0.224, 0.228, 0.232, 0.236, 0.24, 0.244, 0.248, 0.252, 0.256, 0.26, 0.264, 0.268, 0.272, 0.276, 0.28, 0.284, 0.288, 0.292, 0.296, 0.3, 0.304, 0.308, 0.312, 0.316, 0.32, 0.324, 0.328, 0.332, 0.336, 0.34, 0.344, 0.348, 0.352, 0.356, 0.356, 0.356, 0.356, 0.356, 0.356, 0.356, 0.356, 0.356, 0.356, 0.356, 0.356, 0.356, 0.356, 0.356, 0.356, 0.356, 0.356, 0.356, 0.356]",None,None,['right'],[0.3776225410401821],[1.491443624952808],up,2.05316741601564,None,179.07865420804592,179.0829435000196,179.3344068750157,179.32828600000357,179.3283642080496,179.3344068750157,179.3344068750157,180.42792225000449,180.42792225000449,180.416250417009,1,1,,,,,,,,,,,,,,,,sienna,patients,D,2026-03-24_21h48.42.582,asymmetry_final,2024.2.4,120,2026-03-24 21h49.06.874356 -0400,
25,25,0,4,2,baseline,139,1.9,-0.02,1.0,0.092,curv,flat_curv,0.0,0.0,0.02,rew,input_data/stims/Shape_1.90_1.00.png,input_data/stims/Shape_4.00_2.00.png,input_data/stims/Shape_0.00_2.00.png,1,-1,1.0,-1.0,-1,up,9.390260333020706,None,up,3.009689582977444,None,None,None,"['left', 'left', 'left', 'left']","[0.9231658739736304, 1.3442115409998223, 1.5767689579515718, 1.7793680409668013]","[0.15522908401908353, 0.13601679197745398, 0.09602175001055002, 0.10008008300792426]",up,2.0437143329763785,None,0,0,0,0,0,25,25,19,180.42792225000449,,,,,,,,,,,,,,,,,180.4165667920024,0.00031204201513901353,181.30840087501565,181.30843545804964,181.33511187502882,182.48429654201027,182.476322292001,182.47657762502786,0.0002542500151321292,183.9684660420171,183.96932929201284,184.03649512503762,184.03649512503762,184.03649512503762,184.03649512503762,184.03649512503762,184.03649512503762,184.03649512503762,186.08334533299785,"[0.092, 0.092, 0.092, 0.092, 0.092, 0.092, 0.092, 0.092, 0.092, 0.092, 0.092, 0.092, 0.092, 0.092, 0.092, 0.092, 0.092, 0.092, 0.092, 0.092, 0.092, 0.092, 0.092, 0.092, 0.092, 0.092, 0.092, 0.092, 0.092, 0.092, 0.092, 0.092, 0.092, 0.092, 0.092, 0.092, 0.092, 0.092, 0.092, 0.092, 0.092, 0.092, 0.092, 0.092, 0.092, 0.092, 0.092, 0.092, 0.092, 0.092, 0.092, 0.092, 0.092, 0.092, 0.092, 0.092, 0.092, 0.092, 0.092, 0.092, 0.092, 0.092, 0.092, 0.092, 0.092, 0.092, 0.092, 0.092, 0.092, 0.092, 0.092, 0.092, 0.092, 0.092, 0.092, 0.092, 0.092, 0.092, 0.092, 0.092, 0.092, 0.092, 0.092, 0.092, 0.092, 0.092, 0.092, 0.092, 0.092, 0.088, 0.084, 0.08, 0.076, 0.072, 0.068, 0.064, 0.06, 0.056, 0.052, 0.048, 0.044, 0.044, 0.044, 0.044, 0.044, 0.044, 0.044, 0.044, 0.044, 0.044, 0.044, 0.044, 0.044, 0.044, 0.044, 0.044, 0.044, 0.044, 0.044, 0.044, 0.044, 0.044, 0.044, 0.044, 0.044, 0.044, 0.04, 0.036, 0.032, 0.028, 0.024, 0.02, 0.016, 0.012, 0.008, 0.004, 0.0, -0.004, -0.004, -0.004, -0.004, -0.004, -0.004, -0.004, -0.004, -0.004, -0.004, -0.008, -0.012, -0.016, -0.02, -0.024, -0.028, -0.032, -0.036, -0.04, -0.04, -0.04, -0.04, -0.04, -0.04, -0.04, -0.04, -0.04, -0.04, -0.044, -0.048, -0.052, -0.056, -0.06, -0.064, -0.064, -0.064, -0.064, -0.064, -0.064, -0.064, -0.064, -0.064, -0.064, -0.064, -0.064, -0.064]",None,None,"['left', 'left', 'left', 'left']","[0.9231658739736304, 1.3442115409998223, 1.5767689579515718, 1.7793680409668013]","[0.15522908401908353, 0.13601679197745398, 0.09602175001055002, 0.10008008300792426]",up,2.0437143329763785,None,186.08382412500214,186.0909175830311,186.34488275001058,186.333701208001,186.33380608301377,186.34488275001058,,187.36130241700448,,187.3509639580152,0,-1,,,186.34488275001058,187.36130241700448,,,,,,,,,,,,sienna,patients,D,2026-03-24_21h48.42.582,asymmetry_final,2024.2.4,120,2026-03-24 21h49.06.874356 -0400,
26,26,0,4,2,baseline,155,3.5,0.3,1.0,-0.148,flat,flat_curv,0.0,0.0,-0.3,pen,input_data/stims/Shape_3.50_1.00.png,input_data/stims/Shape_4.00_2.00.png,input_data/stims/Shape_0.00_2.00.png,-1,-1,-1.0,-1.0,1,up,9.390260333020706,None,up,3.009689582977444,None,None,None,"['right', 'left']","[0.6746211239951663, 1.0239444990293123]","[0.13997287501115352, 0.37987729196902364]",up,1.5467624990269542,None,0,0,0,0,0,26,26,35,187.36130241700448,,,,,,,,,,,,,,,,,187.35181937500602,0.0008403329993598163,188.34367787500378,188.34370729204966,188.36976162501378,189.41670987504767,189.4119187920005,189.4121894169948,0.0002781249932013452,190.85403275000863,190.85479625000153,190.90537541703088,190.90537541703088,190.90537541703088,190.90537541703088,190.90537541703088,190.90537541703088,190.90537541703088,192.45714741700795,"[-0.148, -0.148, -0.148, -0.148, -0.148, -0.148, -0.148, -0.148, -0.148, -0.148, -0.148, -0.148, -0.148, -0.148, -0.148, -0.148, -0.148, -0.148, -0.148, -0.148, -0.148, -0.148, -0.148, -0.148, -0.148, -0.148, -0.148, -0.148, -0.148, -0.148, -0.148, -0.148, -0.148, -0.148, -0.148, -0.148, -0.148, -0.148, -0.148, -0.148, -0.148, -0.148, -0.148, -0.148, -0.148, -0.148, -0.148, -0.148, -0.148, -0.148, -0.148, -0.148, -0.148, -0.148, -0.148, -0.148, -0.148, -0.148, -0.148, -0.148, -0.148, -0.148, -0.148, -0.148, -0.144, -0.14, -0.136, -0.132, -0.128, -0.124, -0.12, -0.116, -0.112, -0.108, -0.104, -0.1, -0.1, -0.1, -0.1, -0.1, -0.1, -0.1, -0.1, -0.1, -0.1, -0.1, -0.1, -0.1, -0.1, -0.1, -0.1, -0.1, -0.1, -0.1, -0.104, -0.108, -0.112, -0.116, -0.12, -0.124, -0.128, -0.132, -0.136, -0.14, -0.144, -0.148, -0.152, -0.156, -0.16, -0.164, -0.168, -0.172, -0.176, -0.18, -0.184, -0.188, -0.192, -0.196, -0.2, -0.204, -0.208, -0.212, -0.216, -0.22, -0.224, -0.228, -0.228, -0.228, -0.228, -0.228, -0.228, -0.228, -0.228, -0.228, -0.228, -0.228, -0.228, -0.228]",None,None,"['right', 'left']","[0.6746211239951663, 1.0239444990293123]","[0.13997287501115352, 0.37987729196902364]",up,1.5467624990269542,None,192.45740337501047,192.4672890000511,192.77900000003865,192.76272641704418,192.76283495803364,192.77900000003865,192.77900000003865,194.0178494580323,194.0178494580323,194.01197841699468,1,1,,,,,,,,,,,,,,,,sienna,patients,D,2026-03-24_21h48.42.582,asymmetry_final,2024.2.4,120,2026-03-24 21h49.06.874356 -0400,
27,27,0,4,2,baseline,132,1.3,-0.14,3.0,-0.068,curv,curv_flat,0.0,0.0,-0.14,rew,input_data/stims/Shape_1.30_3.00.png,input_data/stims/Shape_0.00_2.00.png,input_data/stims/Shape_4.00_2.00.png,1,1,-1.0,1.0,-1,up,9.390260333020706,None,up,3.009689582977444,None,None,None,['right'],[0.9307692919974215],[0.08401604101527482],up,1.4420431249891408,None,0,0,0,0,0,27,27,12,194.0178494580323,,,,,,,,,,,,,,,,,194.0130210830248,0.0010318750282749534,194.95486420800444,194.9548899170477,194.9806887920131,196.0115368750412,196.00306062505115,196.00332304200856,0.0002744999947026372,197.3452380420058,197.3459909170051,197.39638345804997,197.39638345804997,197.39638345804997,197.39638345804997,197.39638345804997,197.39638345804997,197.39638345804997,198.84725533303572,"[-0.068, -0.068, -0.068, -0.068, -0.068, -0.068, -0.068, -0.068, -0.068, -0.068, -0.068, -0.068, -0.068, -0.068, -0.068, -0.068, -0.068, -0.068, -0.068, -0.068, -0.068, -0.068, -0.068, -0.068, -0.068, -0.068, -0.068, -0.068, -0.068, -0.068, -0.068, -0.068, -0.068, -0.068, -0.068, -0.068, -0.068, -0.068, -0.068, -0.068, -0.068, -0.068, -0.068, -0.068, -0.068, -0.068, -0.068, -0.068, -0.068, -0.068, -0.068, -0.068, -0.068, -0.068, -0.068, -0.068, -0.068, -0.068, -0.068, -0.068, -0.068, -0.068, -0.068, -0.068, -0.068, -0.068, -0.068, -0.068, -0.068, -0.068, -0.068, -0.068, -0.068, -0.068, -0.068, -0.068, -0.068, -0.068, -0.068, -0.068, -0.068, -0.068, -0.068, -0.068, -0.068, -0.064, -0.06, -0.056, -0.052, -0.048, -0.048, -0.048, -0.048, -0.048, -0.048, -0.048, -0.048, -0.048, -0.048, -0.048, -0.048, -0.048, -0.048, -0.048, -0.048, -0.048, -0.048, -0.048, -0.048, -0.048, -0.048, -0.048, -0.048, -0.048, -0.048, -0.048, -0.048, -0.048, -0.048, -0.048, -0.048, -0.048, -0.048, -0.048, -0.048, -0.048, -0.048, -0.048, -0.048, -0.048, -0.048, -0.048]",None,None,['right'],[0.9307692919974215],[0.08401604101527482],up,1.4420431249891408,None,198.84767154202564,198.86131295800442,199.11153895803727,199.10077808302594,199.10087354201823,199.11153895803727,,200.11680524999974,,200.11162570799934,1,5,199.11153895803727,200.11680524999974,,,,,,,,,,,,,,sienna,patients,D,2026-03-24_21h48.42.582,asymmetry_final,2024.2.4,120,2026-03-24 21h49.06.874356 -0400,
28,28,0,4,2,baseline,151,3.1,0.22,1.0,0.132,flat,flat_curv,0.0,0.0,-0.22,pen,input_data/stims/Shape_3.10_1.00.png,input_data/stims/Shape_4.00_2.00.png,input_data/stims/Shape_0.00_2.00.png,-1,-1,1.0,-1.0,1,up,9.390260333020706,None,up,3.009689582977444,None,None,None,['left'],[0.5697470409795642],[1.1393681669724174],up,1.7987861249712296,None,0,0,0,0,0,28,28,31,200.11680524999974,,,,,,,,,,,,,,,,,200.1125027500093,0.0008660419844090939,201.15441600000486,201.1544451250229,201.18065858300542,202.27783320803428,202.271334708028,202.271637458005,0.00029204197926446795,203.5634941669996,203.56426479201764,203.61480833304813,203.61480833304813,203.61480833304813,203.61480833304813,203.61480833304813,203.61480833304813,203.61480833304813,205.42329433304258,"[0.132, 0.132, 0.132, 0.132, 0.132, 0.132, 0.132, 0.132, 0.132, 0.132, 0.132, 0.132, 0.132, 0.132, 0.132, 0.132, 0.132, 0.132, 0.132, 0.132, 0.132, 0.132, 0.132, 0.132, 0.132, 0.132, 0.132, 0.132, 0.132, 0.132, 0.132, 0.132, 0.132, 0.132, 0.132, 0.132, 0.132, 0.132, 0.132, 0.132, 0.132, 0.132, 0.132, 0.132, 0.132, 0.132, 0.132, 0.132, 0.132, 0.132, 0.132, 0.132, 0.128, 0.124, 0.12, 0.116, 0.112, 0.108, 0.104, 0.1, 0.096, 0.092, 0.088, 0.084, 0.08, 0.076, 0.072, 0.068, 0.064, 0.06, 0.056, 0.052, 0.048, 0.044, 0.04, 0.036, 0.032, 0.028, 0.024, 0.02, 0.016, 0.012, 0.008, 0.004, 0.0, -0.004, -0.008, -0.012, -0.016, -0.02, -0.024, -0.028, -0.032, -0.036, -0.04, -0.044, -0.048, -0.052, -0.056, -0.06, -0.064, -0.068, -0.072, -0.076, -0.08, -0.084, -0.088, -0.092, -0.096, -0.1, -0.104, -0.108, -0.112, -0.116, -0.12, -0.124, -0.128, -0.132, -0.136, -0.14, -0.144, -0.148, -0.152, -0.156, -0.16, -0.164, -0.168, -0.172, -0.176, -0.18, -0.184, -0.188, -0.192, -0.196, -0.2, -0.204, -0.208, -0.212, -0.216, -0.22, -0.224, -0.228, -0.232, -0.236, -0.24, -0.244, -0.248, -0.252, -0.256, -0.26, -0.264, -0.268, -0.272, -0.276, -0.28, -0.284, -0.288, -0.288, -0.288, -0.288, -0.288, -0.288, -0.288, -0.288, -0.288, -0.288]",None,None,['left'],[0.5697470409795642],[1.1393681669724174],up,1.7987861249712296,None,205.42362266703276,205.43268145801267,205.68390633299714,205.67838616704103,205.67846050002845,205.68390633299714,205.68390633299714,206.68503550003516,206.68503550003516,206.67913116700947,1,1,,,,,,,,,,,,,,,,sienna,patients,D,2026-03-24_21h48.42.582,asymmetry_final,2024.2.4,120,2026-03-24 21h49.06.874356 -0400,
29,29,0,4,2,baseline,141,2.1,0.02,1.0,0.136,flat,flat_curv,0.0,0.0,-0.02,pen,input_data/stims/Shape_2.10_1.00.png,input_data/stims/Shape_4.00_2.00.png,input_data/stims/Shape_0.00_2.00.png,-1,-1,1.0,-1.0,1,up,9.390260333020706,None,up,3.009689582977444,None,None,None,['left'],[0.5369479579967447],[0.6431675409548916],up,1.309652790951077,None,0,0,0,0,0,29,29,21,206.68503550003516,,,,,,,,,,,,,,,,,206.67994129203726,0.000792709004599601,207.62181245803367,207.62183991703205,207.64789062499767,208.66127558302833,208.6531723330263,208.65344912500586,0.00028316600946709514,209.9452917080489,209.94605966703966,209.99610870803008,209.99610870803008,209.99610870803008,209.99610870803008,209.99610870803008,209.99610870803008,209.99610870803008,211.3124182500178,"[0.136, 0.136, 0.136, 0.136, 0.136, 0.136, 0.136, 0.136, 0.136, 0.136, 0.136, 0.136, 0.136, 0.136, 0.136, 0.136, 0.136, 0.136, 0.136, 0.136, 0.136, 0.136, 0.136, 0.136, 0.136, 0.136, 0.136, 0.136, 0.136, 0.136, 0.136, 0.136, 0.136, 0.136, 0.136, 0.136, 0.136, 0.136, 0.136, 0.136, 0.136, 0.136, 0.136, 0.136, 0.136, 0.136, 0.136, 0.136, 0.136, 0.136, 0.136, 0.136, 0.136, 0.136, 0.136, 0.132, 0.128, 0.124, 0.12, 0.116, 0.112, 0.108, 0.104, 0.1, 0.096, 0.092, 0.088, 0.084, 0.08, 0.076, 0.072, 0.068, 0.064, 0.06, 0.056, 0.052, 0.048, 0.044, 0.04, 0.036, 0.032, 0.028, 0.024, 0.02, 0.016, 0.012, 0.008, 0.004, 0.0, -0.004, -0.008, -0.012, -0.016, -0.02, -0.024, -0.028, -0.032, -0.036, -0.04, -0.044, -0.048, -0.052, -0.056, -0.06, -0.064, -0.068, -0.068, -0.068, -0.068, -0.068, -0.068, -0.068, -0.068, -0.068, -0.068, -0.068, -0.068, -0.068, -0.068, -0.068]",None,None,['left'],[0.5369479579967447],[0.6431675409548916],up,1.309652790951077,None,211.31272287503816,211.3191830420401,211.567787625012,211.56188312504673,211.561976625002,211.567787625012,211.567787625012,212.56908325001132,212.56908325001132,212.56268220802303,1,1,,,,,,,,,,,,,,,,sienna,patients,D,2026-03-24_21h48.42.582,asymmetry_final,2024.2.4,120,2026-03-24 21h49.06.874356 -0400,
30,30,0,4,2,baseline,146,2.7,0.14,1.0,0.236,flat,curv_flat,0.0,0.0,0.14,pen,input_data/stims/Shape_2.70_1.00.png,input_data/stims/Shape_0.00_2.00.png,input_data/stims/Shape_4.00_2.00.png,-1,1,1.0,-1.0,1,up,9.390260333020706,None,up,3.009689582977444,None,None,None,"['left', 'right', 'right']","[0.37830279098125175, 0.8409605830092914, 1.2689564579632133]","[0.30816600000252947, 0.27201987500302494, 0.11586358305066824]",up,1.648988166009076,None,0,0,0,0,0,30,30,26,212.56908325001132,,,,,,,,,,,,,,,,,212.563476292009,0.0007808330119587481,213.65531975001795,213.65534808300436,213.68110166699626,214.67786358302692,214.66931520804064,214.66955004201736,0.00024491699878126383,215.96140504203504,215.9621791249956,216.01125450001564,216.01125450001564,216.01125450001564,216.01125450001564,216.01125450001564,216.01125450001564,216.01125450001564,217.66454745800002,"[0.236, 0.236, 0.236, 0.236, 0.236, 0.236, 0.236, 0.236, 0.236, 0.236, 0.236, 0.236, 0.236, 0.236, 0.236, 0.236, 0.236, 0.236, 0.236, 0.236, 0.236, 0.236, 0.236, 0.236, 0.236, 0.236, 0.236, 0.236, 0.236, 0.236, 0.236, 0.236, 0.236, 0.236, 0.236, 0.236, 0.236, 0.236, 0.236, 0.236, 0.236, 0.236, 0.232, 0.228, 0.224, 0.22, 0.216, 0.212, 0.208, 0.204, 0.2, 0.196, 0.192, 0.188, 0.184, 0.18, 0.176, 0.172, 0.168, 0.164, 0.16, 0.156, 0.152, 0.148, 0.144, 0.14, 0.136, 0.132, 0.128, 0.128, 0.128, 0.128, 0.128, 0.128, 0.128, 0.128, 0.128, 0.128, 0.128, 0.128, 0.128, 0.128, 0.132, 0.136, 0.14, 0.144, 0.148, 0.152, 0.156, 0.16, 0.164, 0.168, 0.172, 0.176, 0.18, 0.184, 0.188, 0.192, 0.196, 0.2, 0.204, 0.208, 0.208, 0.208, 0.208, 0.208, 0.208, 0.208, 0.208, 0.208, 0.208, 0.208, 0.208, 0.208, 0.208, 0.208, 0.208, 0.208, 0.212, 0.216, 0.22, 0.224, 0.228, 0.232, 0.236, 0.24, 0.244, 0.248, 0.248, 0.248, 0.248, 0.248, 0.248, 0.248, 0.248, 0.248, 0.248, 0.248, 0.248, 0.248, 0.248, 0.248, 0.248, 0.248, 0.248, 0.248, 0.248, 0.248, 0.248, 0.248]",None,None,"['left', 'right', 'right']","[0.37830279098125175, 0.8409605830092914, 1.2689564579632133]","[0.30816600000252947, 0.27201987500302494, 0.11586358305066824]",up,1.648988166009076,None,217.66499266703613,217.67161920800572,217.91851804201724,217.9119473330211,217.91205725003965,217.91851804201724,217.91851804201724,218.91786058299476,218.91786058299476,218.9123427500017,1,1,,,,,,,,,,,,,,,,sienna,patients,D,2026-03-24_21h48.42.582,asymmetry_final,2024.2.4,120,2026-03-24 21h49.06.874356 -0400,
31,31,0,4,2,baseline,130,1.1,-0.18,3.0,-0.244,curv,curv_flat,0.0,0.0,-0.18,rew,input_data/stims/Shape_1.10_3.00.png,input_data/stims/Shape_0.00_2.00.png,input_data/stims/Shape_4.00_2.00.png,1,1,-1.0,1.0,-1,up,9.390260333020706,None,up,3.009689582977444,None,None,None,['right'],[1.0595841669710353],[0.8354955830145627],up,2.0062043750076555,None,0,0,0,0,0,31,31,10,218.91786058299476,,,,,,,,,,,,,,,,,218.91307925002184,0.0007328749634325504,220.0049457080313,220.00497720803833,220.0310922920471,221.04946962499525,221.04449341702275,221.04470533301355,0.0002227500081062317,222.38662179204402,222.38739045802504,222.4373301670421,222.4373301670421,222.4373301670421,222.4373301670421,222.4373301670421,222.4373301670421,222.4373301670421,224.44786879204912,"[-0.244, -0.244, -0.244, -0.244, -0.244, -0.244, -0.244, -0.244, -0.244, -0.244, -0.244, -0.244, -0.244, -0.244, -0.244, -0.244, -0.244, -0.244, -0.244, -0.244, -0.244, -0.244, -0.244, -0.244, -0.244, -0.244, -0.244, -0.244, -0.244, -0.244, -0.244, -0.244, -0.244, -0.244, -0.244, -0.244, -0.244, -0.244, -0.244, -0.244, -0.244, -0.244, -0.244, -0.244, -0.244, -0.244, -0.244, -0.244, -0.244, -0.244, -0.244, -0.244, -0.244, -0.244, -0.244, -0.244, -0.244, -0.244, -0.244, -0.244, -0.244, -0.244, -0.244, -0.244, -0.244, -0.244, -0.244, -0.244, -0.244, -0.244, -0.244, -0.244, -0.244, -0.244, -0.244, -0.244, -0.244, -0.244, -0.244, -0.244, -0.244, -0.244, -0.244, -0.244, -0.244, -0.244, -0.244, -0.244, -0.244, -0.244, -0.244, -0.244, -0.244, -0.244, -0.244, -0.244, -0.24, -0.236, -0.232, -0.228, -0.224, -0.22, -0.216, -0.212, -0.208, -0.204, -0.2, -0.196, -0.192, -0.188, -0.184, -0.18, -0.176, -0.172, -0.168, -0.164, -0.16, -0.156, -0.152, -0.148, -0.144, -0.14, -0.136, -0.132, -0.128, -0.124, -0.12, -0.116, -0.112, -0.108, -0.104, -0.1, -0.096, -0.092, -0.088, -0.084, -0.08, -0.076, -0.072, -0.068, -0.064, -0.06, -0.056, -0.052, -0.048, -0.044, -0.04, -0.036, -0.032, -0.028, -0.024, -0.02, -0.016, -0.012, -0.008, -0.004, 0.0, 0.004, 0.008, 0.012, 0.016, 0.02, 0.024, 0.028, 0.032, 0.036, 0.04, 0.044, 0.048, 0.052, 0.056, 0.06, 0.064, 0.068, 0.068, 0.068, 0.068, 0.068, 0.068, 0.068, 0.068, 0.068, 0.068, 0.068, 0.068, 0.068]",None,None,['right'],[1.0595841669710353],[0.8354955830145627],up,2.0062043750076555,None,224.4482126670191,224.45451229199534,224.70113504200708,224.69507320801495,224.6951603750349,224.70113504200708,,225.72837700002128,,225.71723466704134,0,-1,,,224.70113504200708,225.72837700002128,,,,,,,,,,,,sienna,patients,D,2026-03-24_21h48.42.582,asymmetry_final,2024.2.4,120,2026-03-24 21h49.06.874356 -0400,
32,32,0,4,2,baseline,135,1.5,-0.1,1.0,0.288,curv,flat_curv,0.0,0.0,0.1,rew,input_data/stims/Shape_1.50_1.00.png,input_data/stims/Shape_4.00_2.00.png,input_data/stims/Shape_0.00_2.00.png,1,-1,1.0,-1.0,-1,up,9.390260333020706,None,up,3.009689582977444,None,None,None,"['left', 'left', 'left', 'left']","[0.5554775830241852, 1.0308641660376452, 1.3832992910174653, 1.6396772500011139]","[0.3080227919854224, 0.11202474997844547, 0.11998662498081103, 0.112154999980703]",up,1.9078502079937607,None,0,0,0,0,0,32,32,15,225.72837700002128,,,,,,,,,,,,,,,,,225.71794129203772,0.0006901670130901039,226.80983879201813,226.80986720800865,226.83568441704847,227.86107045802055,227.85358712502057,227.85385604202747,0.00027550000231713057,229.34576787502738,229.34652716701385,229.39563375001308,229.39563375001308,229.39563375001308,229.39563375001308,229.39563375001308,229.39563375001308,229.39563375001308,231.3099207500345,"[0.288, 0.288, 0.288, 0.288, 0.288, 0.288, 0.288, 0.288, 0.288, 0.288, 0.288, 0.288, 0.288, 0.288, 0.288, 0.288, 0.288, 0.288, 0.288, 0.288, 0.288, 0.288, 0.288, 0.288, 0.288, 0.288, 0.288, 0.288, 0.288, 0.288, 0.288, 0.288, 0.288, 0.288, 0.288, 0.288, 0.288, 0.288, 0.288, 0.288, 0.288, 0.288, 0.288, 0.288, 0.288, 0.288, 0.288, 0.288, 0.288, 0.288, 0.288, 0.288, 0.288, 0.288, 0.284, 0.28, 0.276, 0.272, 0.268, 0.264, 0.26, 0.256, 0.252, 0.248, 0.244, 0.24, 0.236, 0.232, 0.228, 0.224, 0.22, 0.216, 0.212, 0.208, 0.204, 0.2, 0.196, 0.192, 0.188, 0.184, 0.184, 0.184, 0.184, 0.184, 0.184, 0.184, 0.184, 0.184, 0.184, 0.184, 0.184, 0.18, 0.176, 0.172, 0.168, 0.164, 0.16, 0.156, 0.152, 0.152, 0.152, 0.152, 0.152, 0.152, 0.152, 0.152, 0.152, 0.152, 0.152, 0.152, 0.152, 0.152, 0.152, 0.152, 0.152, 0.152, 0.152, 0.152, 0.152, 0.152, 0.152, 0.148, 0.144, 0.14, 0.136, 0.132, 0.128, 0.124, 0.12, 0.116, 0.112, 0.112, 0.112, 0.112, 0.112, 0.112, 0.112, 0.112, 0.112, 0.112, 0.112, 0.112, 0.112, 0.108, 0.104, 0.1, 0.096, 0.092, 0.088, 0.084, 0.08, 0.076, 0.072, 0.072, 0.072, 0.072, 0.072, 0.072, 0.072, 0.072, 0.072, 0.072, 0.072, 0.072, 0.072, 0.072, 0.072, 0.072, 0.072]",None,None,"['left', 'left', 'left', 'left']","[0.5554775830241852, 1.0308641660376452, 1.3832992910174653, 1.6396772500011139]","[0.3080227919854224, 0.11202474997844547, 0.11998662498081103, 0.112154999980703]",up,1.9078502079937607,None,231.3103806670406,231.31687116704416,231.56850045803003,231.56209629203659,231.562196917017,231.56850045803003,,232.58424550003838,,232.578413042007,1,5,231.56850045803003,232.58424550003838,,,,,,,,,,,,,,sienna,patients,D,2026-03-24_21h48.42.582,asymmetry_final,2024.2.4,120,2026-03-24 21h49.06.874356 -0400,
33,33,0,4,2,baseline,153,3.3,0.26,1.0,0.136,flat,flat_curv,0.0,0.0,-0.26,pen,input_data/stims/Shape_3.30_1.00.png,input_data/stims/Shape_4.00_2.00.png,input_data/stims/Shape_0.00_2.00.png,-1,-1,1.0,-1.0,1,up,9.390260333020706,None,up,3.009689582977444,None,None,None,['left'],[0.42929574998561293],[1.2313397079706192],up,1.8120162079576403,None,0,0,0,0,0,33,33,33,232.58424550003838,,,,,,,,,,,,,,,,,232.57937733299332,0.000878457969520241,233.47126383299474,233.47129120799946,233.49732733302517,234.53306316700764,234.5280240420252,234.528240500018,0.00022854201961308718,235.87014045804972,235.87089120800374,235.92056454200065,235.92056454200065,235.92056454200065,235.92056454200065,235.92056454200065,235.92056454200065,235.92056454200065,237.73656675004167,"[0.136, 0.136, 0.136, 0.136, 0.136, 0.136, 0.136, 0.136, 0.136, 0.136, 0.136, 0.136, 0.136, 0.136, 0.136, 0.136, 0.136, 0.136, 0.136, 0.136, 0.136, 0.136, 0.136, 0.136, 0.136, 0.136, 0.136, 0.136, 0.136, 0.136, 0.136, 0.136, 0.136, 0.136, 0.136, 0.136, 0.136, 0.136, 0.136, 0.136, 0.136, 0.132, 0.128, 0.124, 0.12, 0.116, 0.112, 0.108, 0.104, 0.1, 0.096, 0.092, 0.088, 0.084, 0.08, 0.076, 0.072, 0.068, 0.064, 0.06, 0.056, 0.052, 0.048, 0.044, 0.04, 0.036, 0.032, 0.028, 0.024, 0.02, 0.016, 0.012, 0.008, 0.004, 0.0, -0.004, -0.008, -0.012, -0.016, -0.02, -0.024, -0.028, -0.032, -0.036, -0.04, -0.044, -0.048, -0.052, -0.056, -0.06, -0.064, -0.068, -0.072, -0.076, -0.08, -0.084, -0.088, -0.092, -0.096, -0.1, -0.104, -0.108, -0.112, -0.116, -0.12, -0.124, -0.128, -0.132, -0.136, -0.14, -0.144, -0.148, -0.152, -0.156, -0.16, -0.164, -0.168, -0.172, -0.176, -0.18, -0.184, -0.188, -0.192, -0.196, -0.2, -0.204, -0.208, -0.212, -0.216, -0.22, -0.224, -0.228, -0.232, -0.236, -0.24, -0.244, -0.248, -0.252, -0.256, -0.26, -0.264, -0.268, -0.272, -0.276, -0.28, -0.284, -0.288, -0.292, -0.296, -0.3, -0.3, -0.3, -0.3, -0.3, -0.3, -0.3, -0.3, -0.3, -0.3, -0.3, -0.3, -0.3, -0.3, -0.3, -0.3]",None,None,['left'],[0.42929574998561293],[1.2313397079706192],up,1.8120162079576403,None,237.73689895804273,237.74427925003693,237.99448579200543,237.98341954202624,237.98351250000997,237.99448579200543,237.99448579200543,239.02813612500904,239.02813612500904,239.01923820801312,1,1,,,,,,,,,,,,,,,,sienna,patients,D,2026-03-24_21h48.42.582,asymmetry_final,2024.2.4,120,2026-03-24 21h49.06.874356 -0400,
34,34,0,4,2,baseline,120,0.1,-0.38,1.0,-0.252,curv,curv_flat,0.0,0.0,-0.38,rew,input_data/stims/Shape_0.10_1.00.png,input_data/stims/Shape_0.00_2.00.png,input_data/stims/Shape_4.00_2.00.png,1,1,-1.0,-1.0,-1,up,9.390260333020706,None,up,3.009689582977444,None,None,None,"['right', 'right']","[0.32866924902191386, 1.0411027910304256]","[0.42403266701148823, 0.10788683296414092]",up,1.3033670409931801,None,0,0,0,0,0,34,34,0,239.02813612500904,,,,,,,,,,,,,,,,,239.0201985000167,0.0009410420316271484,240.11205491703004,240.11208070802968,240.1381054170197,241.1665332080447,241.161455708032,241.1616699580336,0.0002277079620398581,242.5035788330133,242.50433141703252,242.55349733302137,242.55349733302137,242.55349733302137,242.55349733302137,242.55349733302137,242.55349733302137,242.55349733302137,243.86079520802014,"[-0.252, -0.252, -0.252, -0.252, -0.252, -0.252, -0.252, -0.252, -0.252, -0.252, -0.252, -0.252, -0.252, -0.252, -0.252, -0.252, -0.252, -0.252, -0.252, -0.252, -0.252, -0.252, -0.252, -0.252, -0.252, -0.252, -0.252, -0.252, -0.252, -0.248, -0.244, -0.24, -0.236, -0.232, -0.228, -0.224, -0.22, -0.216, -0.212, -0.208, -0.204, -0.2, -0.196, -0.192, -0.188, -0.184, -0.18, -0.176, -0.172, -0.168, -0.164, -0.16, -0.156, -0.152, -0.148, -0.144, -0.14, -0.136, -0.132, -0.128, -0.124, -0.12, -0.116, -0.112, -0.112, -0.112, -0.112, -0.112, -0.112, -0.112, -0.112, -0.112, -0.112, -0.112, -0.112, -0.112, -0.112, -0.112, -0.112, -0.112, -0.112, -0.112, -0.112, -0.112, -0.112, -0.112, -0.112, -0.112, -0.112, -0.108, -0.104, -0.1, -0.096, -0.092, -0.088, -0.084, -0.08, -0.076, -0.076, -0.076, -0.076, -0.076, -0.076, -0.076, -0.076, -0.076, -0.076, -0.076, -0.076, -0.076, -0.076]",None,None,"['right', 'right']","[0.32866924902191386, 1.0411027910304256]","[0.42403266701148823, 0.10788683296414092]",up,1.3033670409931801,None,243.86118537501898,243.8673899170244,244.1179423330468,244.1120978750405,244.11218875000486,244.1179423330468,,245.11839375004638,,245.11234566703206,1,5,244.1179423330468,245.11839375004638,,,,,,,,,,,,,,sienna,patients,D,2026-03-24_21h48.42.582,asymmetry_final,2024.2.4,120,2026-03-24 21h49.06.874356 -0400,
35,35,0,4,2,baseline,129,0.9,-0.22,1.0,0.048,curv,flat_curv,0.0,0.0,0.22,rew,input_data/stims/Shape_0.90_1.00.png,input_data/stims/Shape_4.00_2.00.png,input_data/stims/Shape_0.00_2.00.png,1,-1,1.0,-1.0,-1,up,9.390260333020706,None,up,3.009689582977444,None,None,None,"['left', 'right']","[0.716881791013293, 1.3406170830130577]","[0.49947058397810906, 0.5279880829621106]",up,1.9625334999873303,None,0,0,0,0,0,35,35,9,245.11839375004638,,,,,,,,,,,,,,,,,245.11318516702158,0.000819500011857599,246.20505270804279,246.20508233300643,246.23113387502963,247.26132529199822,247.25343883299502,247.2536929580383,0.00026295898715034127,248.5455463330145,248.54630950000137,248.5949775830377,248.5949775830377,248.5949775830377,248.5949775830377,248.5949775830377,248.5949775830377,248.5949775830377,250.57999187504174,"[0.048, 0.048, 0.048, 0.048, 0.048, 0.048, 0.048, 0.048, 0.048, 0.048, 0.048, 0.048, 0.048, 0.048, 0.048, 0.048, 0.048, 0.048, 0.048, 0.048, 0.048, 0.048, 0.048, 0.048, 0.048, 0.048, 0.048, 0.048, 0.048, 0.048, 0.048, 0.048, 0.048, 0.048, 0.048, 0.048, 0.048, 0.048, 0.048, 0.048, 0.048, 0.048, 0.048, 0.048, 0.048, 0.048, 0.048, 0.048, 0.048, 0.048, 0.048, 0.048, 0.048, 0.048, 0.048, 0.048, 0.048, 0.048, 0.048, 0.048, 0.048, 0.048, 0.048, 0.048, 0.048, 0.048, 0.048, 0.048, 0.048, 0.048, 0.048, 0.048, 0.044, 0.04, 0.036, 0.032, 0.028, 0.024, 0.02, 0.016, 0.012, 0.008, 0.004, 0.0, -0.004, -0.008, -0.012, -0.016, -0.02, -0.024, -0.028, -0.032, -0.036, -0.04, -0.044, -0.048, -0.052, -0.056, -0.06, -0.064, -0.068, -0.072, -0.076, -0.08, -0.084, -0.088, -0.092, -0.096, -0.1, -0.104, -0.108, -0.112, -0.112, -0.112, -0.112, -0.112, -0.112, -0.112, -0.112, -0.112, -0.112, -0.112, -0.112, -0.112, -0.112, -0.108, -0.104, -0.1, -0.096, -0.092, -0.088, -0.084, -0.08, -0.076, -0.072, -0.068, -0.064, -0.06, -0.056, -0.052, -0.048, -0.044, -0.04, -0.036, -0.032, -0.028, -0.024, -0.02, -0.016, -0.012, -0.008, -0.004, 0.0, 0.004, 0.008, 0.012, 0.016, 0.02, 0.024, 0.028, 0.032, 0.036, 0.04, 0.044, 0.048, 0.052, 0.056, 0.06, 0.064, 0.068, 0.072, 0.076, 0.076, 0.076, 0.076, 0.076, 0.076, 0.076, 0.076, 0.076, 0.076, 0.076, 0.076]",None,None,"['left', 'right']","[0.716881791013293, 1.3406170830130577]","[0.49947058397810906, 0.5279880829621106]",up,1.9625334999873303,None,250.58040987502318,250.5949657500023,250.84560666704783,250.83390629204223,250.834016583045,250.84560666704783,,251.86775091703748,,251.8622210000176,1,5,250.84560666704783,251.86775091703748,,,,,,,,,,,,,,sienna,patients,D,2026-03-24_21h48.42.582,asymmetry_final,2024.2.4,120,2026-03-24 21h49.06.874356 -0400,
36,36,0,4,2,baseline,140,2.1,0.02,3.0,0.148,flat,curv_flat,0.0,0.0,0.02,pen,input_data/stims/Shape_2.10_3.00.png,input_data/stims/Shape_0.00_2.00.png,input_data/stims/Shape_4.00_2.00.png,-1,1,1.0,1.0,1,up,9.390260333020706,None,up,3.009689582977444,None,None,None,['left'],[0.5844508740119636],[0.23918779200175777],up,1.1685406239703298,None,0,0,0,0,0,36,36,20,251.86775091703748,,,,,,,,,,,,,,,,,251.86308183299843,0.0008515000226907432,252.75493787502637,252.75496337504592,252.78099425003165,253.8203323330381,253.81490845803637,253.81519791705068,0.0002829160075634718,255.2070556670078,255.20785166701535,255.25780466699507,255.25780466699507,255.25780466699507,255.25780466699507,255.25780466699507,255.25780466699507,255.25780466699507,256.43402633303776,"[0.148, 0.148, 0.148, 0.148, 0.148, 0.148, 0.148, 0.148, 0.148, 0.148, 0.148, 0.148, 0.148, 0.148, 0.148, 0.148, 0.148, 0.148, 0.148, 0.148, 0.148, 0.148, 0.148, 0.148, 0.148, 0.148, 0.148, 0.148, 0.148, 0.148, 0.148, 0.148, 0.148, 0.148, 0.148, 0.148, 0.148, 0.148, 0.148, 0.148, 0.148, 0.148, 0.148, 0.148, 0.148, 0.148, 0.148, 0.148, 0.148, 0.148, 0.148, 0.148, 0.148, 0.148, 0.148, 0.144, 0.14, 0.136, 0.132, 0.128, 0.124, 0.12, 0.116, 0.112, 0.108, 0.104, 0.1, 0.096, 0.092, 0.088, 0.084, 0.08, 0.076, 0.072, 0.072, 0.072, 0.072, 0.072, 0.072, 0.072, 0.072, 0.072, 0.072, 0.072, 0.072, 0.072, 0.072, 0.072, 0.072, 0.072, 0.072, 0.072, 0.072, 0.072, 0.072, 0.072, 0.072, 0.072, 0.072, 0.072, 0.072, 0.072, 0.072, 0.072, 0.072, 0.072]",None,None,['left'],[0.5844508740119636],[0.23918779200175777],up,1.1685406239703298,None,256.43439145799493,256.4415211669984,256.70116404199507,256.6954345420236,256.69551070802845,256.70116404199507,256.70116404199507,257.76184195803944,257.76184195803944,257.7515134169953,1,1,,,,,,,,,,,,,,,,sienna,patients,D,2026-03-24_21h48.42.582,asymmetry_final,2024.2.4,120,2026-03-24 21h49.06.874356 -0400,
37,37,0,4,2,baseline,144,2.5,0.1,3.0,-0.128,flat,curv_flat,0.0,0.0,0.1,pen,input_data/stims/Shape_2.50_3.00.png,input_data/stims/Shape_0.00_2.00.png,input_data/stims/Shape_4.00_2.00.png,-1,1,-1.0,1.0,1,up,9.390260333020706,None,up,3.009689582977444,None,None,None,"['right', 'right', 'right']","[0.6123592910007574, 1.3119197490159422, 2.0809444159967825]","[0.555615332967136, 0.12415474996669218, 0.13599141698796302]",up,2.3484611659660004,None,0,0,0,0,0,37,37,24,257.76184195803944,,,,,,,,,,,,,,,,,257.7520078330417,0.00048216700088232756,258.7938394580269,258.79387095803395,258.8196098750341,259.8169905830291,259.8120142080006,259.81230466702254,0.00030033302027732134,261.2042254580301,261.20501391700236,261.2568141670199,261.2568141670199,261.2568141670199,261.2568141670199,261.2568141670199,261.2568141670199,261.2568141670199,263.60713591700187,"[-0.128, -0.128, -0.128, -0.128, -0.128, -0.128, -0.128, -0.128, -0.128, -0.128, -0.128, -0.128, -0.128, -0.128, -0.128, -0.128, -0.128, -0.128, -0.128, -0.128, -0.128, -0.128, -0.128, -0.128, -0.128, -0.128, -0.128, -0.128, -0.128, -0.128, -0.128, -0.128, -0.128, -0.128, -0.128, -0.128, -0.128, -0.128, -0.128, -0.128, -0.128, -0.128, -0.128, -0.128, -0.128, -0.128, -0.128, -0.128, -0.128, -0.128, -0.128, -0.128, -0.128, -0.128, -0.128, -0.128, -0.128, -0.128, -0.128, -0.128, -0.128, -0.124, -0.12, -0.116, -0.112, -0.108, -0.104, -0.1, -0.096, -0.092, -0.088, -0.084, -0.08, -0.076, -0.072, -0.068, -0.064, -0.06, -0.056, -0.052, -0.048, -0.044, -0.04, -0.036, -0.032, -0.028, -0.024, -0.02, -0.016, -0.012, -0.008, -0.004, 0.0, 0.004, 0.008, 0.012, 0.016, 0.02, 0.024, 0.028, 0.032, 0.036, 0.04, 0.044, 0.048, 0.052, 0.056, 0.06, 0.064, 0.064, 0.064, 0.064, 0.064, 0.064, 0.064, 0.064, 0.064, 0.064, 0.064, 0.064, 0.064, 0.068, 0.072, 0.076, 0.08, 0.084, 0.088, 0.092, 0.096, 0.1, 0.104, 0.104, 0.104, 0.104, 0.104, 0.104, 0.104, 0.104, 0.104, 0.104, 0.104, 0.104, 0.104, 0.104, 0.104, 0.104, 0.104, 0.104, 0.104, 0.104, 0.104, 0.104, 0.104, 0.104, 0.104, 0.104, 0.104, 0.104, 0.104, 0.104, 0.104, 0.104, 0.104, 0.104, 0.104, 0.104, 0.104, 0.104, 0.104, 0.104, 0.104, 0.104, 0.104, 0.104, 0.104, 0.104, 0.104, 0.104, 0.104, 0.104, 0.104, 0.104, 0.104, 0.104, 0.104, 0.104, 0.104, 0.104, 0.104, 0.104, 0.104, 0.108, 0.112, 0.116, 0.12, 0.124, 0.128, 0.132, 0.136, 0.14, 0.144, 0.148, 0.152, 0.152, 0.152, 0.152, 0.152, 0.152, 0.152, 0.152, 0.152, 0.152, 0.152, 0.152, 0.152, 0.152, 0.152]",None,None,"['right', 'right', 'right']","[0.6123592910007574, 1.3119197490159422, 2.0809444159967825]","[0.555615332967136, 0.12415474996669218, 0.13599141698796302]",up,2.3484611659660004,None,263.60752670804504,263.61580062500434,263.86842175002676,263.86226975003956,263.86236766702496,263.86842175002676,263.86842175002676,264.9458795830142,264.9458795830142,264.9295697500347,1,1,,,,,,,,,,,,,,,,sienna,patients,D,2026-03-24_21h48.42.582,asymmetry_final,2024.2.4,120,2026-03-24 21h49.06.874356 -0400,
38,38,0,4,2,baseline,152,3.3,0.26,3.0,-0.1,flat,curv_flat,0.0,0.0,0.26,pen,input_data/stims/Shape_3.30_3.00.png,input_data/stims/Shape_0.00_2.00.png,input_data/stims/Shape_4.00_2.00.png,-1,1,-1.0,1.0,1,up,9.390260333020706,None,up,3.009689582977444,None,None,None,['right'],[0.4691841239691712],[1.2313595000305213],up,1.8422967490041628,None,0,0,0,0,0,38,38,32,264.9458795830142,,,,,,,,,,,,,,,,,264.93062812503194,0.0010494999587535858,265.9225526250084,265.9225802080473,265.95061983302,267.0114933330333,267.0034391670488,267.0037060420145,0.0002755419700406492,268.29560329200467,268.29639870801475,268.34680454200134,268.34680454200134,268.34680454200134,268.34680454200134,268.34680454200134,268.34680454200134,268.34680454200134,270.19429883302655,"[-0.1, -0.1, -0.1, -0.1, -0.1, -0.1, -0.1, -0.1, -0.1, -0.1, -0.1, -0.1, -0.1, -0.1, -0.1, -0.1, -0.1, -0.1, -0.1, -0.1, -0.1, -0.1, -0.1, -0.1, -0.1, -0.1, -0.1, -0.1, -0.1, -0.1, -0.1, -0.1, -0.1, -0.1, -0.1, -0.1, -0.1, -0.1, -0.1, -0.1, -0.1, -0.1, -0.1, -0.1, -0.096, -0.092, -0.088, -0.084, -0.08, -0.076, -0.072, -0.068, -0.064, -0.06, -0.056, -0.052, -0.048, -0.044, -0.04, -0.036, -0.032, -0.028, -0.024, -0.02, -0.016, -0.012, -0.008, -0.004, 0.0, 0.004, 0.008, 0.012, 0.016, 0.02, 0.024, 0.028, 0.032, 0.036, 0.04, 0.044, 0.048, 0.052, 0.056, 0.06, 0.064, 0.068, 0.072, 0.076, 0.08, 0.084, 0.088, 0.092, 0.096, 0.1, 0.104, 0.108, 0.112, 0.116, 0.12, 0.124, 0.128, 0.132, 0.136, 0.14, 0.144, 0.148, 0.152, 0.156, 0.16, 0.164, 0.168, 0.172, 0.176, 0.18, 0.184, 0.188, 0.192, 0.196, 0.2, 0.204, 0.208, 0.212, 0.216, 0.22, 0.224, 0.228, 0.232, 0.236, 0.24, 0.244, 0.248, 0.252, 0.256, 0.26, 0.264, 0.268, 0.272, 0.276, 0.28, 0.284, 0.288, 0.292, 0.296, 0.3, 0.3, 0.3, 0.3, 0.3, 0.3, 0.3, 0.3, 0.3, 0.3, 0.3, 0.3, 0.3, 0.3, 0.3, 0.3, 0.3]",None,None,['right'],[0.4691841239691712],[1.2313595000305213],up,1.8422967490041628,None,270.19466862501577,270.2007276249933,270.46201550000114,270.45107641699724,270.45118866703706,270.46201550000114,270.46201550000114,271.53429637500085,271.53429637500085,271.52886504202615,1,1,,,,,,,,,,,,,,,,sienna,patients,D,2026-03-24_21h48.42.582,asymmetry_final,2024.2.4,120,2026-03-24 21h49.06.874356 -0400,
39,39,0,4,2,baseline,124,0.5,-0.3,1.0,-0.364,curv,curv_flat,0.0,0.0,-0.3,rew,input_data/stims/Shape_0.50_1.00.png,input_data/stims/Shape_0.00_2.00.png,input_data/stims/Shape_4.00_2.00.png,1,1,-1.0,-1.0,-1,up,9.390260333020706,None,up,3.009689582977444,None,None,None,['right'],[0.7763937080162577],[0.5272813750198111],up,1.4969245830434375,None,0,0,0,0,0,39,39,4,271.53429637500085,,,,,,,,,,,,,,,,,271.5297164170188,0.0008401249651797116,272.52161512500606,272.5216405420215,272.54750554199563,273.5665521250339,273.56174075003946,273.5619502500049,0.00022008403902873397,275.0537967500277,275.05456254200544,275.10195504204603,275.10195504204603,275.10195504204603,275.10195504204603,275.10195504204603,275.10195504204603,275.10195504204603,276.60926770803053,"[-0.364, -0.364, -0.364, -0.364, -0.364, -0.364, -0.364, -0.364, -0.364, -0.364, -0.364, -0.364, -0.364, -0.364, -0.364, -0.364, -0.364, -0.364, -0.364, -0.364, -0.364, -0.364, -0.364, -0.364, -0.364, -0.364, -0.364, -0.364, -0.364, -0.364, -0.364, -0.364, -0.364, -0.364, -0.364, -0.364, -0.364, -0.364, -0.364, -0.364, -0.364, -0.364, -0.364, -0.364, -0.364, -0.364, -0.364, -0.364, -0.364, -0.364, -0.364, -0.364, -0.364, -0.364, -0.364, -0.364, -0.364, -0.364, -0.364, -0.364, -0.364, -0.364, -0.364, -0.364, -0.364, -0.364, -0.364, -0.364, -0.364, -0.364, -0.364, -0.364, -0.364, -0.36, -0.356, -0.352, -0.348, -0.344, -0.34, -0.336, -0.332, -0.328, -0.324, -0.32, -0.316, -0.312, -0.308, -0.304, -0.3, -0.296, -0.292, -0.288, -0.284, -0.28, -0.276, -0.272, -0.268, -0.264, -0.26, -0.256, -0.252, -0.248, -0.244, -0.24, -0.236, -0.232, -0.228, -0.224, -0.22, -0.216, -0.212, -0.208, -0.204, -0.2, -0.196, -0.192, -0.188, -0.188, -0.188, -0.188, -0.188, -0.188, -0.188, -0.188, -0.188, -0.188, -0.188, -0.188, -0.188, -0.188, -0.188, -0.188, -0.188, -0.188, -0.188, -0.188, -0.188]",None,None,['right'],[0.7763937080162577],[0.5272813750198111],up,1.4969245830434375,None,276.60961283301003,276.61591450002743,276.86957100004656,276.86251908302074,276.86261966702295,276.86957100004656,,278.10333070805063,,278.0129922920023,1,5,276.86957100004656,278.10333070805063,,,,,,,,,,,,,,sienna,patients,D,2026-03-24_21h48.42.582,asymmetry_final,2024.2.4,120,2026-03-24 21h49.06.874356 -0400,
