thisN,thisTrialN,thisRepN,blockN,run,condition,trial_key,stim_file_pos,stim_pos,noise_pos,marker_init,shape,shape_order,div_pos,target_pos,subj_C0F1_val,subj_C1F0_val,target_file,img1_file,img2_file,block_start_resp.keys,block_start_resp.rt,block_start_resp.duration,marker.response,marker.rt,slider_resp.keys,slider_resp.rt,slider_resp.duration,submit_resp.keys,submit_resp.rt,submit_resp.duration,blocks.thisRepN,blocks.thisTrialN,blocks.thisN,blocks.thisIndex,trials.thisRepN,trials.thisTrialN,trials.thisN,trials.thisIndex,thisRow.t,notes,block_start.started,block_start_text.started,block_start_resp.started,block_start.stopped,blocks.block_start_resp.keys,blocks.block_start_resp.rt,blocks.block_start_resp.duration,baseline.started,ISI1.started,baseline.stopped,stim.started,target_stim.started,target_stim.stopped,stim.stopped,delay.started,ISI2.started,delay.stopped,task.started,img1.started,img2.started,divider_line.started,slider_line.started,marker.started,slider_resp.started,submit_resp.started,task.stopped,positions,trials.marker.response,trials.marker.rt,trials.slider_resp.keys,trials.slider_resp.rt,trials.slider_resp.duration,trials.submit_resp.keys,trials.submit_resp.rt,trials.submit_resp.duration,anticipation.started,anticipation_text.started,anticipation_text.stopped,anticipation.stopped,feedback.started,no_resp_text.started,three_coin.started,no_resp_text.stopped,three_coin.stopped,feedback.stopped,valence,correct,outcome,three_cross.started,three_cross.stopped,one_cross.started,one_cross.stopped,one_coin.started,one_coin.stopped,block_end.started,block_end_text.started,block_end_resp.started,subj,difficulty,sess_type,date,expName,psychopyVersion,frameRate,expStart,
0,0,0,1,1,baseline,5,0.5,-0.3,0.0,-0.004,curv,flat_curv,0.0,0.3,pen,rew,input_data/stims/Shape_0.50_0.00.png,input_data/stims/Shape_4.00_0.00.png,input_data/stims/Shape_0.00_0.00.png,up,2.7306843330152333,None,None,None,['right'],[0.760911374934949],[0.33934466703794897],up,1.3526897080009803,None,0,0,0,0,0,0,0,5,3.4304077500710264,,0.37784920807462186,0.6192030410747975,0.6192030410747975,3.3549677080009133,up,2.7306843330152333,None,3.4169805829878896,0.06194695900194347,4.4593596659833565,4.4594006249681115,4.513414290966466,5.519723540986888,5.515817124978639,5.516092500067316,0.0002893339842557907,6.958102707983926,6.960264291032217,7.090213999967091,7.090213999967091,7.090213999967091,7.090213999967091,7.090213999967091,7.090213999967091,7.090213999967091,8.450803749961779,"[-0.004, -0.004, -0.004, -0.004, -0.004, -0.004, -0.004, -0.004, -0.004, -0.004, -0.004, -0.004, -0.004, -0.004, -0.004, -0.004, -0.004, -0.004, -0.004, -0.004, -0.004, -0.004, -0.004, -0.004, -0.004, -0.004, -0.004, -0.004, -0.004, -0.004, -0.004, -0.004, -0.004, -0.004, -0.004, -0.004, -0.004, -0.004, -0.004, -0.004, -0.004, -0.004, -0.004, -0.004, -0.004, -0.004, -0.004, -0.004, -0.004, -0.004, -0.004, -0.004, -0.004, -0.004, -0.004, -0.004, -0.004, -0.004, -0.004, -0.004, -0.004, -0.004, -0.004, -0.004, -0.004, -0.004, -0.004, -0.004, -0.004, -0.004, -0.004, -0.004, -0.004, -0.004, -0.004, -0.004, -0.004, -0.004, -0.004, -0.004, -0.004, -0.004, -0.004, -0.004, -0.004, -0.004, -0.004, -0.004, -0.004, -0.004, -0.004, -0.004, 0.0, 0.004, 0.008, 0.012, 0.016, 0.02, 0.024, 0.028, 0.032, 0.036, 0.04, 0.044, 0.048, 0.052, 0.056, 0.06, 0.064, 0.068, 0.072, 0.076, 0.08, 0.084, 0.088, 0.092, 0.096, 0.1, 0.104, 0.108, 0.112, 0.116, 0.12, 0.124, 0.128, 0.132, 0.136, 0.14, 0.144, 0.148, 0.152, 0.156, 0.156, 0.156, 0.156, 0.156, 0.156, 0.156, 0.156, 0.156, 0.156, 0.156, 0.156, 0.156, 0.156, 0.156, 0.156, 0.156, 0.156, 0.156, 0.156, 0.156, 0.156, 0.156, 0.156, 0.156, 0.156, 0.156, 0.156, 0.156, 0.156, 0.156, 0.156]",None,None,['right'],[0.760911374934949],[0.33934466703794897],up,1.3526897080009803,None,8.45129508303944,8.457919290987775,8.721706290962175,8.699486583005637,8.699635124998167,8.721706290962175,8.721706290962175,9.732381000067107,9.732381000067107,9.7202494579833,rew,1,3,,,,,,,,,,sid,hard,D,2025-04-05_16h24.15.858,asymmetry_final,2024.2.4,120,2025-04-05 16h24.31.206325 -0400,
1,1,0,1,1,baseline,1,0.1,-0.38,0.0,-0.032,curv,flat_curv,0.0,0.38,pen,rew,input_data/stims/Shape_0.10_0.00.png,input_data/stims/Shape_4.00_0.00.png,input_data/stims/Shape_0.00_0.00.png,up,2.7306843330152333,None,None,None,['right'],[0.24454508407507092],[0.47528749995399266],up,0.9299470840487629,None,0,0,0,0,0,1,1,1,9.732381000067107,,,,,,,,,9.721051790984347,0.0007610839093104005,10.712928249966353,10.712971291039139,10.74053658300545,11.736822000006214,11.733042999985628,11.733273791032843,0.00023666699416935444,13.12520929099992,13.126433082972653,13.188829416059889,13.188829416059889,13.188829416059889,13.188829416059889,13.188829416059889,13.188829416059889,13.188829416059889,14.121568458038382,"[-0.032, -0.032, -0.032, -0.032, -0.032, -0.032, -0.032, -0.032, -0.032, -0.032, -0.032, -0.032, -0.032, -0.032, -0.032, -0.032, -0.032, -0.032, -0.032, -0.032, -0.032, -0.032, -0.032, -0.032, -0.032, -0.032, -0.032, -0.032, -0.032, -0.032, -0.032, -0.028, -0.024, -0.02, -0.016, -0.012, -0.008, -0.004, 0.0, 0.004, 0.008, 0.012, 0.016, 0.02, 0.024, 0.028, 0.032, 0.036, 0.04, 0.044, 0.048, 0.052, 0.056, 0.06, 0.064, 0.068, 0.072, 0.076, 0.08, 0.084, 0.088, 0.092, 0.096, 0.1, 0.104, 0.108, 0.112, 0.116, 0.12, 0.124, 0.128, 0.132, 0.136, 0.14, 0.144, 0.148, 0.152, 0.156, 0.16, 0.164, 0.168, 0.168, 0.168, 0.168, 0.168, 0.168, 0.168, 0.168, 0.168, 0.168, 0.168, 0.168, 0.168, 0.168, 0.168, 0.168, 0.168, 0.168, 0.168, 0.168, 0.168, 0.168, 0.168, 0.168, 0.168, 0.168, 0.168]",None,None,['right'],[0.24454508407507092],[0.47528749995399266],up,0.9299470840487629,None,14.121815582970157,14.131888707983308,14.382360332994722,14.369989625061862,14.370085166068748,14.382360332994722,14.382360332994722,15.382491250056773,15.382491250056773,15.369236333062872,rew,1,3,,,,,,,,,,sid,hard,D,2025-04-05_16h24.15.858,asymmetry_final,2024.2.4,120,2025-04-05 16h24.31.206325 -0400,
2,2,0,1,1,baseline,21,2.1,0.02,4.0,-0.008,flat,flat_curv,0.0,-0.02,rew,pen,input_data/stims/Shape_2.10_4.00.png,input_data/stims/Shape_4.00_0.00.png,input_data/stims/Shape_0.00_0.00.png,up,2.7306843330152333,None,None,None,['right'],[1.7206822090083733],[0.18350095802452415],up,2.146798833971843,None,0,0,0,0,0,2,2,21,15.382491250056773,,,,,,,,,15.369652000023052,0.00040733395144343376,16.26157095807139,16.26161449996289,16.290450416039675,17.286327000008896,17.28257962502539,17.282852750038728,0.0002869580639526248,18.624834083020687,18.626057040994056,18.684969583060592,18.684969583060592,18.684969583060592,18.684969583060592,18.684969583060592,18.684969583060592,18.684969583060592,20.834505875012837,"[-0.008, -0.008, -0.008, -0.008, -0.008, -0.008, -0.008, -0.008, -0.008, -0.008, -0.008, -0.008, -0.008, -0.008, -0.008, -0.008, -0.008, -0.008, -0.008, -0.008, -0.008, -0.008, -0.008, -0.008, -0.008, -0.008, -0.008, -0.008, -0.008, -0.008, -0.008, -0.008, -0.008, -0.008, -0.008, -0.008, -0.008, -0.008, -0.008, -0.008, -0.008, -0.008, -0.008, -0.008, -0.008, -0.008, -0.008, -0.008, -0.008, -0.008, -0.008, -0.008, -0.008, -0.008, -0.008, -0.008, -0.008, -0.008, -0.008, -0.008, -0.008, -0.008, -0.008, -0.008, -0.008, -0.008, -0.008, -0.008, -0.008, -0.008, -0.008, -0.008, -0.008, -0.008, -0.008, -0.008, -0.008, -0.008, -0.008, -0.008, -0.008, -0.008, -0.008, -0.008, -0.008, -0.008, -0.008, -0.008, -0.008, -0.008, -0.008, -0.008, -0.008, -0.008, -0.008, -0.008, -0.008, -0.008, -0.008, -0.008, -0.008, -0.008, -0.008, -0.008, -0.008, -0.008, -0.008, -0.008, -0.008, -0.008, -0.008, -0.008, -0.008, -0.008, -0.008, -0.008, -0.008, -0.008, -0.008, -0.008, -0.008, -0.008, -0.008, -0.008, -0.008, -0.008, -0.008, -0.008, -0.008, -0.008, -0.008, -0.008, -0.008, -0.008, -0.008, -0.008, -0.008, -0.008, -0.008, -0.008, -0.008, -0.008, -0.008, -0.008, -0.008, -0.008, -0.008, -0.008, -0.008, -0.008, -0.008, -0.008, -0.008, -0.008, -0.008, -0.008, -0.008, -0.008, -0.008, -0.008, -0.008, -0.008, -0.008, -0.008, -0.008, -0.008, -0.008, -0.008, -0.008, -0.008, -0.008, -0.008, -0.008, -0.008, -0.008, -0.008, -0.008, -0.008, -0.008, -0.008, -0.008, -0.008, -0.008, -0.008, -0.008, -0.008, -0.008, -0.008, -0.008, -0.008, -0.008, -0.008, -0.008, -0.008, -0.008, -0.008, -0.008, -0.008, -0.008, -0.008, -0.008, -0.008, -0.008, -0.008, -0.008, -0.008, -0.004, 0.0, 0.004, 0.008, 0.012, 0.016, 0.02, 0.024, 0.028, 0.032, 0.036, 0.04, 0.044, 0.048, 0.052, 0.056, 0.06, 0.064, 0.068, 0.072, 0.076, 0.076, 0.076, 0.076, 0.076, 0.076, 0.076, 0.076, 0.076, 0.076, 0.076, 0.076, 0.076, 0.076, 0.076, 0.076, 0.076, 0.076, 0.076, 0.076, 0.076, 0.076, 0.076, 0.076, 0.076, 0.076, 0.076, 0.076, 0.076, 0.076]",None,None,['right'],[1.7206822090083733],[0.18350095802452415],up,2.146798833971843,None,20.835088124964386,20.840664457995445,21.089058749959804,21.082604583003558,21.0827108330559,21.089058749959804,,22.087389374966733,,22.083006708067842,pen,0,-3,21.089058749959804,22.087389374966733,,,,,,,,sid,hard,D,2025-04-05_16h24.15.858,asymmetry_final,2024.2.4,120,2025-04-05 16h24.31.206325 -0400,
3,3,0,1,1,baseline,8,0.9,-0.22,0.0,-0.1,curv,curv_flat,0.0,-0.22,pen,rew,input_data/stims/Shape_0.90_0.00.png,input_data/stims/Shape_0.00_0.00.png,input_data/stims/Shape_4.00_0.00.png,up,2.7306843330152333,None,None,None,"['right', 'left']","[0.5958394169574603, 1.3864611249882728]","[0.279241833020933, 0.21606391691602767]",up,1.855677624931559,None,0,0,0,0,0,3,3,8,22.087389374966733,,,,,,,,,22.083817875012755,0.0008039170643314719,22.975811665994115,22.9758551659761,23.003116665990092,24.003075208049268,23.99952083302196,23.99976441601757,0.00024804205168038607,25.4417857080698,25.443108375067823,25.501187124988064,25.501187124988064,25.501187124988064,25.501187124988064,25.501187124988064,25.501187124988064,25.501187124988064,27.36726595798973,"[-0.1, -0.1, -0.1, -0.1, -0.1, -0.1, -0.1, -0.1, -0.1, -0.1, -0.1, -0.1, -0.1, -0.1, -0.1, -0.1, -0.1, -0.1, -0.1, -0.1, -0.1, -0.1, -0.1, -0.1, -0.1, -0.1, -0.1, -0.1, -0.1, -0.1, -0.1, -0.1, -0.1, -0.1, -0.1, -0.1, -0.1, -0.1, -0.1, -0.1, -0.1, -0.1, -0.1, -0.1, -0.1, -0.1, -0.1, -0.1, -0.1, -0.1, -0.1, -0.1, -0.1, -0.1, -0.1, -0.1, -0.1, -0.1, -0.1, -0.1, -0.1, -0.1, -0.1, -0.1, -0.1, -0.1, -0.1, -0.1, -0.1, -0.1, -0.1, -0.1, -0.096, -0.092, -0.088, -0.084, -0.08, -0.076, -0.072, -0.068, -0.064, -0.06, -0.056, -0.052, -0.048, -0.044, -0.04, -0.036, -0.032, -0.028, -0.024, -0.02, -0.016, -0.012, -0.008, -0.004, 0.0, 0.004, 0.008, 0.012, 0.016, 0.02, 0.024, 0.028, 0.032, 0.032, 0.032, 0.032, 0.032, 0.032, 0.032, 0.032, 0.032, 0.032, 0.032, 0.032, 0.032, 0.032, 0.032, 0.032, 0.032, 0.032, 0.032, 0.032, 0.032, 0.032, 0.032, 0.032, 0.032, 0.032, 0.032, 0.032, 0.032, 0.032, 0.032, 0.032, 0.032, 0.032, 0.032, 0.032, 0.032, 0.032, 0.032, 0.032, 0.032, 0.032, 0.032, 0.032, 0.032, 0.032, 0.032, 0.032, 0.032, 0.032, 0.032, 0.032, 0.032, 0.032, 0.032, 0.032, 0.032, 0.032, 0.032, 0.028, 0.024, 0.02, 0.016, 0.012, 0.008, 0.004, 0.0, -0.004, -0.008, -0.012, -0.016, -0.02, -0.024, -0.028, -0.032, -0.036, -0.04, -0.044, -0.048, -0.052, -0.056, -0.056, -0.056, -0.056, -0.056, -0.056, -0.056, -0.056, -0.056, -0.056, -0.056, -0.056, -0.056, -0.056, -0.056, -0.056, -0.056, -0.056, -0.056, -0.056, -0.056, -0.056, -0.056, -0.056, -0.056, -0.056, -0.056, -0.056, -0.056, -0.056, -0.056, -0.056, -0.056]",None,None,"['right', 'left']","[0.5958394169574603, 1.3864611249882728]","[0.279241833020933, 0.21606391691602767]",up,1.855677624931559,None,27.36774450005032,27.372376749990508,27.62213720800355,27.6165572500322,27.616679250029847,27.62213720800355,27.62213720800355,28.620918625034392,28.620918625034392,28.616285791038536,rew,1,3,,,,,,,,,,sid,hard,D,2025-04-05_16h24.15.858,asymmetry_final,2024.2.4,120,2025-04-05 16h24.31.206325 -0400,
4,4,0,1,1,baseline,11,1.1,-0.18,0.0,0.104,curv,flat_curv,0.0,0.18,pen,rew,input_data/stims/Shape_1.10_0.00.png,input_data/stims/Shape_4.00_0.00.png,input_data/stims/Shape_0.00_0.00.png,up,2.7306843330152333,None,None,None,"['left', 'left']","[0.7545610000379384, 1.6922192909987643]","[0.3351147079374641, 0.09591208398342133]",up,2.0023148329928517,None,0,0,0,0,0,4,4,11,28.620918625034392,,,,,,,,,28.617068040999584,0.0007845000363886356,29.60901845805347,29.609083499992266,29.636817582999356,30.63643495796714,30.633144165971316,30.63337358296849,0.00023491703905165195,32.125327458023094,32.1266633750638,32.18602208304219,32.18602208304219,32.18602208304219,32.18602208304219,32.18602208304219,32.18602208304219,32.18602208304219,34.200466708047315,"[0.104, 0.104, 0.104, 0.104, 0.104, 0.104, 0.104, 0.104, 0.104, 0.104, 0.104, 0.104, 0.104, 0.104, 0.104, 0.104, 0.104, 0.104, 0.104, 0.104, 0.104, 0.104, 0.104, 0.104, 0.104, 0.104, 0.104, 0.104, 0.104, 0.104, 0.104, 0.104, 0.104, 0.104, 0.104, 0.104, 0.104, 0.104, 0.104, 0.104, 0.104, 0.104, 0.104, 0.104, 0.104, 0.104, 0.104, 0.104, 0.104, 0.104, 0.104, 0.104, 0.104, 0.104, 0.104, 0.104, 0.104, 0.104, 0.104, 0.104, 0.104, 0.104, 0.104, 0.104, 0.104, 0.104, 0.104, 0.104, 0.104, 0.104, 0.104, 0.104, 0.104, 0.104, 0.104, 0.104, 0.104, 0.104, 0.104, 0.104, 0.104, 0.104, 0.104, 0.104, 0.104, 0.104, 0.104, 0.104, 0.104, 0.104, 0.104, 0.104, 0.1, 0.096, 0.092, 0.088, 0.084, 0.08, 0.076, 0.072, 0.068, 0.064, 0.06, 0.056, 0.052, 0.048, 0.044, 0.04, 0.036, 0.032, 0.028, 0.024, 0.02, 0.016, 0.012, 0.008, 0.004, 0.0, -0.004, -0.008, -0.012, -0.016, -0.02, -0.024, -0.028, -0.032, -0.036, -0.04, -0.04, -0.04, -0.04, -0.04, -0.04, -0.04, -0.04, -0.04, -0.04, -0.04, -0.04, -0.04, -0.04, -0.04, -0.04, -0.04, -0.04, -0.04, -0.04, -0.04, -0.04, -0.04, -0.04, -0.04, -0.04, -0.04, -0.04, -0.04, -0.04, -0.04, -0.04, -0.04, -0.04, -0.04, -0.04, -0.04, -0.04, -0.04, -0.04, -0.04, -0.04, -0.04, -0.04, -0.04, -0.04, -0.04, -0.04, -0.04, -0.04, -0.04, -0.04, -0.04, -0.04, -0.04, -0.04, -0.04, -0.04, -0.04, -0.04, -0.04, -0.04, -0.04, -0.04, -0.04, -0.04, -0.04, -0.04, -0.04, -0.04, -0.04, -0.04, -0.04, -0.044, -0.048, -0.052, -0.056, -0.06, -0.064, -0.068, -0.072, -0.076, -0.08, -0.084, -0.084, -0.084, -0.084, -0.084, -0.084, -0.084, -0.084, -0.084, -0.084, -0.084, -0.084, -0.084, -0.084, -0.084, -0.084, -0.084, -0.084, -0.084, -0.084, -0.084, -0.084, -0.084, -0.084, -0.084, -0.084, -0.084, -0.084]",None,None,"['left', 'left']","[0.7545610000379384, 1.6922192909987643]","[0.3351147079374641, 0.09591208398342133]",up,2.0023148329928517,None,34.201014125021175,34.20395858306438,34.45584487495944,34.44963916600682,34.449777833069675,34.45584487495944,,35.45392300002277,,35.4494296250632,rew,0,-1,,,34.45584487495944,35.45392300002277,,,,,,sid,hard,D,2025-04-05_16h24.15.858,asymmetry_final,2024.2.4,120,2025-04-05 16h24.31.206325 -0400,
5,5,0,1,1,baseline,3,0.3,-0.34,0.0,0.056,curv,flat_curv,0.0,0.34,pen,rew,input_data/stims/Shape_0.30_0.00.png,input_data/stims/Shape_4.00_0.00.png,input_data/stims/Shape_0.00_0.00.png,up,2.7306843330152333,None,None,None,['right'],[0.5233067499939352],[0.09924495907034725],up,0.8380551669979468,None,0,0,0,0,0,5,5,3,35.45392300002277,,,,,,,,,35.450258249999024,0.0008195829577744007,36.492223000037484,36.492266083019786,36.51963150000665,37.52063141600229,37.516484791063704,37.51679541601334,0.00032354099676012993,38.858677458018064,38.859860665979795,38.91768808302004,38.91768808302004,38.91768808302004,38.91768808302004,38.91768808302004,38.91768808302004,38.91768808302004,39.76750812504906,"[0.056, 0.056, 0.056, 0.056, 0.056, 0.056, 0.056, 0.056, 0.056, 0.056, 0.056, 0.056, 0.056, 0.056, 0.056, 0.056, 0.056, 0.056, 0.056, 0.056, 0.056, 0.056, 0.056, 0.056, 0.056, 0.056, 0.056, 0.056, 0.056, 0.056, 0.056, 0.056, 0.056, 0.056, 0.056, 0.056, 0.056, 0.056, 0.056, 0.056, 0.056, 0.056, 0.056, 0.056, 0.056, 0.056, 0.056, 0.056, 0.056, 0.056, 0.056, 0.056, 0.056, 0.056, 0.056, 0.056, 0.056, 0.056, 0.056, 0.056, 0.056, 0.056, 0.056, 0.056, 0.06, 0.064, 0.068, 0.072, 0.076, 0.08, 0.084, 0.088, 0.092, 0.096, 0.1, 0.1, 0.1, 0.1, 0.1, 0.1, 0.1, 0.1, 0.1, 0.1, 0.1, 0.1, 0.1, 0.1, 0.1, 0.1, 0.1, 0.1, 0.1, 0.1, 0.1, 0.1, 0.1, 0.1, 0.1, 0.1, 0.1, 0.1]",None,None,['right'],[0.5233067499939352],[0.09924495907034725],up,0.8380551669979468,None,39.76783345802687,39.77097399998456,40.02098579099402,40.016039750073105,40.016163083026186,40.02098579099402,40.02098579099402,41.053879250073805,41.053879250073805,41.049538457999006,rew,1,3,,,,,,,,,,sid,hard,D,2025-04-05_16h24.15.858,asymmetry_final,2024.2.4,120,2025-04-05 16h24.31.206325 -0400,
6,6,0,1,1,baseline,17,1.7,-0.06,0.0,-0.36,curv,flat_curv,0.0,0.06,pen,rew,input_data/stims/Shape_1.70_0.00.png,input_data/stims/Shape_4.00_0.00.png,input_data/stims/Shape_0.00_0.00.png,up,2.7306843330152333,None,None,None,['right'],[1.5936262500472367],[0.863227832945995],up,2.692162250052206,None,0,0,0,0,0,6,6,17,41.053879250073805,,,,,,,,,41.05032799998298,0.0007964159594848752,42.09225912496913,42.09230416605715,42.119903290993534,43.15278816607315,43.14923804102,43.14945983304642,0.0002302920911461115,44.54140087496489,44.54259816603735,44.595408541033976,44.595408541033976,44.595408541033976,44.595408541033976,44.595408541033976,44.595408541033976,44.595408541033976,47.291200208012015,"[-0.36, -0.36, -0.36, -0.36, -0.36, -0.36, -0.36, -0.36, -0.36, -0.36, -0.36, -0.36, -0.36, -0.36, -0.36, -0.36, -0.36, -0.36, -0.36, -0.36, -0.36, -0.36, -0.36, -0.36, -0.36, -0.36, -0.36, -0.36, -0.36, -0.36, -0.36, -0.36, -0.36, -0.36, -0.36, -0.36, -0.36, -0.36, -0.36, -0.36, -0.36, -0.36, -0.36, -0.36, -0.36, -0.36, -0.36, -0.36, -0.36, -0.36, -0.36, -0.36, -0.36, -0.36, -0.36, -0.36, -0.36, -0.36, -0.36, -0.36, -0.36, -0.36, -0.36, -0.36, -0.36, -0.36, -0.36, -0.36, -0.36, -0.36, -0.36, -0.36, -0.36, -0.36, -0.36, -0.36, -0.36, -0.36, -0.36, -0.36, -0.36, -0.36, -0.36, -0.36, -0.36, -0.36, -0.36, -0.36, -0.36, -0.36, -0.36, -0.36, -0.36, -0.36, -0.36, -0.36, -0.36, -0.36, -0.36, -0.36, -0.36, -0.36, -0.36, -0.36, -0.36, -0.36, -0.36, -0.36, -0.36, -0.36, -0.36, -0.36, -0.36, -0.36, -0.36, -0.36, -0.36, -0.36, -0.36, -0.36, -0.36, -0.36, -0.36, -0.36, -0.36, -0.36, -0.36, -0.36, -0.36, -0.36, -0.36, -0.36, -0.36, -0.36, -0.36, -0.36, -0.36, -0.36, -0.36, -0.36, -0.36, -0.36, -0.36, -0.36, -0.36, -0.36, -0.36, -0.36, -0.36, -0.36, -0.36, -0.36, -0.36, -0.36, -0.36, -0.36, -0.36, -0.36, -0.36, -0.36, -0.36, -0.36, -0.36, -0.36, -0.36, -0.36, -0.36, -0.36, -0.36, -0.36, -0.36, -0.36, -0.36, -0.36, -0.36, -0.36, -0.36, -0.36, -0.36, -0.36, -0.36, -0.36, -0.36, -0.36, -0.36, -0.36, -0.36, -0.36, -0.36, -0.36, -0.36, -0.36, -0.36, -0.356, -0.352, -0.348, -0.344, -0.34, -0.336, -0.332, -0.328, -0.324, -0.32, -0.316, -0.312, -0.308, -0.304, -0.3, -0.296, -0.292, -0.288, -0.284, -0.28, -0.276, -0.272, -0.268, -0.264, -0.26, -0.256, -0.252, -0.248, -0.244, -0.24, -0.236, -0.232, -0.228, -0.224, -0.22, -0.216, -0.212, -0.208, -0.204, -0.2, -0.196, -0.192, -0.188, -0.184, -0.18, -0.176, -0.172, -0.168, -0.164, -0.16, -0.156, -0.152, -0.148, -0.144, -0.14, -0.136, -0.132, -0.128, -0.124, -0.12, -0.116, -0.112, -0.108, -0.104, -0.1, -0.096, -0.092, -0.088, -0.084, -0.08, -0.076, -0.072, -0.068, -0.064, -0.06, -0.056, -0.052, -0.048, -0.044, -0.04, -0.036, -0.032, -0.028, -0.024, -0.02, -0.016, -0.012, -0.008, -0.004, 0.0, 0.004, 0.008, 0.012, 0.016, 0.02, 0.024, 0.028, 0.028, 0.028, 0.028, 0.028, 0.028, 0.028, 0.028, 0.028, 0.028, 0.028, 0.028, 0.028, 0.028, 0.028, 0.028, 0.028, 0.028, 0.028, 0.028, 0.028, 0.028, 0.028, 0.028, 0.028, 0.028, 0.028, 0.028, 0.028, 0.028]",None,None,['right'],[1.5936262500472367],[0.863227832945995],up,2.692162250052206,None,47.29184499999974,47.298454500036314,47.549142500036396,47.53612666600384,47.53624899999704,47.549142500036396,47.549142500036396,48.54897654103115,48.54897654103115,48.53747562505305,rew,1,3,,,,,,,,,,sid,hard,D,2025-04-05_16h24.15.858,asymmetry_final,2024.2.4,120,2025-04-05 16h24.31.206325 -0400,
7,7,0,1,1,baseline,4,0.5,-0.3,0.0,-0.368,curv,curv_flat,0.0,-0.3,pen,rew,input_data/stims/Shape_0.50_0.00.png,input_data/stims/Shape_0.00_0.00.png,input_data/stims/Shape_4.00_0.00.png,up,2.7306843330152333,None,None,None,['right'],[0.41930624993983656],[0.4478090420598164],up,1.1289008340099826,None,0,0,0,0,0,7,7,4,48.54897654103115,,,,,,,,,48.537969290977344,0.00048433407209813595,49.47987570799887,49.47992050007451,49.50728512497153,50.50365808303468,50.50018854101654,50.50044491596054,0.00026208406779915094,51.79232441599015,51.79351854103152,51.8527743750019,51.8527743750019,51.8527743750019,51.8527743750019,51.8527743750019,51.8527743750019,51.8527743750019,52.98398220806848,"[-0.368, -0.368, -0.368, -0.368, -0.368, -0.368, -0.368, -0.368, -0.368, -0.368, -0.368, -0.368, -0.368, -0.368, -0.368, -0.368, -0.368, -0.368, -0.368, -0.368, -0.368, -0.368, -0.368, -0.368, -0.368, -0.368, -0.368, -0.368, -0.368, -0.368, -0.368, -0.368, -0.368, -0.368, -0.368, -0.368, -0.368, -0.368, -0.368, -0.368, -0.368, -0.368, -0.368, -0.368, -0.368, -0.368, -0.368, -0.368, -0.368, -0.368, -0.368, -0.368, -0.364, -0.36, -0.356, -0.352, -0.348, -0.344, -0.34, -0.336, -0.332, -0.328, -0.324, -0.32, -0.316, -0.312, -0.308, -0.304, -0.3, -0.296, -0.292, -0.288, -0.284, -0.28, -0.276, -0.272, -0.268, -0.264, -0.26, -0.256, -0.252, -0.248, -0.244, -0.24, -0.236, -0.232, -0.228, -0.224, -0.22, -0.216, -0.212, -0.208, -0.204, -0.2, -0.196, -0.192, -0.188, -0.184, -0.18, -0.176, -0.172, -0.168, -0.164, -0.16, -0.156, -0.156, -0.156, -0.156, -0.156, -0.156, -0.156, -0.156, -0.156, -0.156, -0.156, -0.156, -0.156, -0.156, -0.156, -0.156, -0.156, -0.156, -0.156, -0.156, -0.156, -0.156, -0.156, -0.156, -0.156, -0.156, -0.156, -0.156, -0.156, -0.156, -0.156, -0.156, -0.156]",None,None,['right'],[0.41930624993983656],[0.4478090420598164],up,1.1289008340099826,None,52.9844081250485,52.98908220801968,53.23673691600561,53.23265158303548,53.232749375049025,53.23673691600561,53.23673691600561,54.23675300006289,54.23675300006289,54.232955208048224,rew,1,3,,,,,,,,,,sid,hard,D,2025-04-05_16h24.15.858,asymmetry_final,2024.2.4,120,2025-04-05 16h24.31.206325 -0400,
8,8,0,1,1,baseline,36,3.7,0.34,4.0,-0.048,flat,curv_flat,0.0,0.34,rew,pen,input_data/stims/Shape_3.70_4.00.png,input_data/stims/Shape_0.00_0.00.png,input_data/stims/Shape_4.00_0.00.png,up,2.7306843330152333,None,None,None,"['right', 'left']","[0.6509127910248935, 1.57968012499623]","[0.21931679197587073, 0.32384974998421967]",up,2.087503500049934,None,0,0,0,0,0,8,8,36,54.23675300006289,,,,,,,,,54.233615083037876,0.0006479169242084026,55.17552195803728,55.17556879098993,55.20333412499167,56.203647540998645,56.20019550004508,56.20044133299962,0.00025174999609589577,57.642327875015326,57.64352562499698,57.698240750003606,57.698240750003606,57.698240750003606,57.698240750003606,57.698240750003606,57.698240750003606,57.698240750003606,59.78892841597553,"[-0.048, -0.048, -0.048, -0.048, -0.048, -0.048, -0.048, -0.048, -0.048, -0.048, -0.048, -0.048, -0.048, -0.048, -0.048, -0.048, -0.048, -0.048, -0.048, -0.048, -0.048, -0.048, -0.048, -0.048, -0.048, -0.048, -0.048, -0.048, -0.048, -0.048, -0.048, -0.048, -0.048, -0.048, -0.048, -0.048, -0.048, -0.048, -0.048, -0.048, -0.048, -0.048, -0.048, -0.048, -0.048, -0.048, -0.048, -0.048, -0.048, -0.048, -0.048, -0.048, -0.048, -0.048, -0.048, -0.048, -0.048, -0.048, -0.048, -0.048, -0.048, -0.048, -0.048, -0.048, -0.048, -0.048, -0.048, -0.048, -0.048, -0.048, -0.048, -0.048, -0.048, -0.048, -0.048, -0.048, -0.048, -0.048, -0.048, -0.048, -0.044, -0.04, -0.036, -0.032, -0.028, -0.024, -0.02, -0.016, -0.012, -0.008, -0.004, 0.0, 0.004, 0.008, 0.012, 0.016, 0.02, 0.024, 0.028, 0.032, 0.036, 0.04, 0.044, 0.048, 0.052, 0.056, 0.056, 0.056, 0.056, 0.056, 0.056, 0.056, 0.056, 0.056, 0.056, 0.056, 0.056, 0.056, 0.056, 0.056, 0.056, 0.056, 0.056, 0.056, 0.056, 0.056, 0.056, 0.056, 0.056, 0.056, 0.056, 0.056, 0.056, 0.056, 0.056, 0.056, 0.056, 0.056, 0.056, 0.056, 0.056, 0.056, 0.056, 0.056, 0.056, 0.056, 0.056, 0.056, 0.056, 0.056, 0.056, 0.056, 0.056, 0.056, 0.056, 0.056, 0.056, 0.056, 0.056, 0.056, 0.056, 0.056, 0.056, 0.056, 0.056, 0.056, 0.056, 0.056, 0.056, 0.056, 0.056, 0.056, 0.056, 0.056, 0.056, 0.056, 0.056, 0.056, 0.056, 0.056, 0.056, 0.056, 0.056, 0.056, 0.056, 0.056, 0.056, 0.056, 0.056, 0.056, 0.056, 0.052, 0.048, 0.044, 0.04, 0.036, 0.032, 0.028, 0.024, 0.02, 0.016, 0.012, 0.008, 0.004, 0.0, -0.004, -0.008, -0.012, -0.016, -0.02, -0.024, -0.028, -0.032, -0.036, -0.04, -0.044, -0.048, -0.052, -0.056, -0.06, -0.064, -0.068, -0.072, -0.076, -0.08, -0.084, -0.084, -0.084, -0.084, -0.084, -0.084, -0.084, -0.084, -0.084, -0.084, -0.084, -0.084, -0.084, -0.084, -0.084, -0.084, -0.084, -0.084, -0.084, -0.084, -0.084, -0.084, -0.084, -0.084]",None,None,"['right', 'left']","[0.6509127910248935, 1.57968012499623]","[0.21931679197587073, 0.32384974998421967]",up,2.087503500049934,None,59.78932741598692,59.79859200003557,60.04913866601419,60.03600029100198,60.036110540968366,60.04913866601419,,61.04916950000916,,61.03644441603683,pen,0,-3,60.04913866601419,61.04916950000916,,,,,,,,sid,hard,D,2025-04-05_16h24.15.858,asymmetry_final,2024.2.4,120,2025-04-05 16h24.31.206325 -0400,
9,9,0,1,1,baseline,37,3.7,0.34,4.0,-0.16,flat,flat_curv,0.0,-0.34,rew,pen,input_data/stims/Shape_3.70_4.00.png,input_data/stims/Shape_4.00_0.00.png,input_data/stims/Shape_0.00_0.00.png,up,2.7306843330152333,None,None,None,['right'],[1.550255332957022],[0.48329487501177937],up,2.2256557919317856,None,0,0,0,0,0,9,9,37,61.04916950000916,,,,,,,,,61.037020749994554,0.0005657089641317725,61.92897374997847,61.929017500020564,61.95627616601996,62.96985020802822,62.96660949999932,62.96684600005392,0.00024025002494454384,64.3587735829642,64.35996837506536,64.41527216602117,64.41527216602117,64.41527216602117,64.41527216602117,64.41527216602117,64.41527216602117,64.41527216602117,66.65125687501859,"[-0.16, -0.16, -0.16, -0.16, -0.16, -0.16, -0.16, -0.16, -0.16, -0.16, -0.16, -0.16, -0.16, -0.16, -0.16, -0.16, -0.16, -0.16, -0.16, -0.16, -0.16, -0.16, -0.16, -0.16, -0.16, -0.16, -0.16, -0.16, -0.16, -0.16, -0.16, -0.16, -0.16, -0.16, -0.16, -0.16, -0.16, -0.16, -0.16, -0.16, -0.16, -0.16, -0.16, -0.16, -0.16, -0.16, -0.16, -0.16, -0.16, -0.16, -0.16, -0.16, -0.16, -0.16, -0.16, -0.16, -0.16, -0.16, -0.16, -0.16, -0.16, -0.16, -0.16, -0.16, -0.16, -0.16, -0.16, -0.16, -0.16, -0.16, -0.16, -0.16, -0.16, -0.16, -0.16, -0.16, -0.16, -0.16, -0.16, -0.16, -0.16, -0.16, -0.16, -0.16, -0.16, -0.16, -0.16, -0.16, -0.16, -0.16, -0.16, -0.16, -0.16, -0.16, -0.16, -0.16, -0.16, -0.16, -0.16, -0.16, -0.16, -0.16, -0.16, -0.16, -0.16, -0.16, -0.16, -0.16, -0.16, -0.16, -0.16, -0.16, -0.16, -0.16, -0.16, -0.16, -0.16, -0.16, -0.16, -0.16, -0.16, -0.16, -0.16, -0.16, -0.16, -0.16, -0.16, -0.16, -0.16, -0.16, -0.16, -0.16, -0.16, -0.16, -0.16, -0.16, -0.16, -0.16, -0.16, -0.16, -0.16, -0.16, -0.16, -0.16, -0.16, -0.16, -0.16, -0.16, -0.16, -0.16, -0.16, -0.16, -0.16, -0.16, -0.16, -0.16, -0.16, -0.16, -0.16, -0.16, -0.16, -0.16, -0.16, -0.16, -0.16, -0.16, -0.16, -0.16, -0.16, -0.16, -0.16, -0.16, -0.16, -0.16, -0.16, -0.16, -0.16, -0.16, -0.16, -0.16, -0.16, -0.16, -0.16, -0.16, -0.16, -0.16, -0.16, -0.16, -0.156, -0.152, -0.148, -0.144, -0.14, -0.136, -0.132, -0.128, -0.124, -0.12, -0.116, -0.112, -0.108, -0.104, -0.1, -0.096, -0.092, -0.088, -0.084, -0.08, -0.076, -0.072, -0.068, -0.064, -0.06, -0.056, -0.052, -0.048, -0.044, -0.04, -0.036, -0.032, -0.028, -0.024, -0.02, -0.016, -0.012, -0.008, -0.004, 0.0, 0.004, 0.008, 0.012, 0.016, 0.02, 0.024, 0.028, 0.032, 0.036, 0.04, 0.044, 0.048, 0.052, 0.056, 0.06, 0.064, 0.068, 0.068, 0.068, 0.068, 0.068, 0.068, 0.068, 0.068, 0.068, 0.068, 0.068, 0.068, 0.068, 0.068, 0.068, 0.068, 0.068, 0.068, 0.068, 0.068, 0.068, 0.068, 0.068, 0.068, 0.068, 0.068]",None,None,['right'],[1.550255332957022],[0.48329487501177937],up,2.2256557919317856,None,66.65181854099501,66.65716120798606,66.90500729100313,66.89967575005721,66.89977937506046,66.90500729100313,,67.90353324997704,,67.89973641606048,pen,0,-3,66.90500729100313,67.90353324997704,,,,,,,,sid,hard,D,2025-04-05_16h24.15.858,asymmetry_final,2024.2.4,120,2025-04-05 16h24.31.206325 -0400,
10,10,0,1,1,baseline,24,2.5,0.1,4.0,-0.18,flat,curv_flat,0.0,0.1,rew,pen,input_data/stims/Shape_2.50_4.00.png,input_data/stims/Shape_0.00_0.00.png,input_data/stims/Shape_4.00_0.00.png,up,2.7306843330152333,None,None,None,"['right', 'right']","[0.727199082961306, 1.390523791895248]","[0.2071379169356078, 0.34025862510316074]",up,1.9421375829260796,None,0,0,0,0,0,10,10,24,67.90353324997704,,,,,,,,,67.90041412506253,0.0006609580013900995,68.8423901660135,68.84243420802522,68.86964233301114,69.86952120799106,69.86633300001267,69.86657741595991,0.0002281669294461608,71.35853962507099,71.35972249996848,71.41586666600779,71.41586666600779,71.41586666600779,71.41586666600779,71.41586666600779,71.41586666600779,71.41586666600779,73.36751558305696,"[-0.18, -0.18, -0.18, -0.18, -0.18, -0.18, -0.18, -0.18, -0.18, -0.18, -0.18, -0.18, -0.18, -0.18, -0.18, -0.18, -0.18, -0.18, -0.18, -0.18, -0.18, -0.18, -0.18, -0.18, -0.18, -0.18, -0.18, -0.18, -0.18, -0.18, -0.18, -0.18, -0.18, -0.18, -0.18, -0.18, -0.18, -0.18, -0.18, -0.18, -0.18, -0.18, -0.18, -0.18, -0.18, -0.18, -0.18, -0.18, -0.18, -0.18, -0.18, -0.18, -0.18, -0.18, -0.18, -0.18, -0.18, -0.18, -0.18, -0.18, -0.18, -0.18, -0.18, -0.18, -0.18, -0.18, -0.18, -0.18, -0.18, -0.18, -0.18, -0.18, -0.18, -0.18, -0.18, -0.18, -0.18, -0.18, -0.18, -0.18, -0.18, -0.18, -0.18, -0.18, -0.18, -0.18, -0.18, -0.18, -0.18, -0.176, -0.172, -0.168, -0.164, -0.16, -0.156, -0.152, -0.148, -0.144, -0.14, -0.136, -0.132, -0.128, -0.124, -0.12, -0.116, -0.112, -0.108, -0.104, -0.1, -0.096, -0.092, -0.088, -0.084, -0.084, -0.084, -0.084, -0.084, -0.084, -0.084, -0.084, -0.084, -0.084, -0.084, -0.084, -0.084, -0.084, -0.084, -0.084, -0.084, -0.084, -0.084, -0.084, -0.084, -0.084, -0.084, -0.084, -0.084, -0.084, -0.084, -0.084, -0.084, -0.084, -0.084, -0.084, -0.084, -0.084, -0.084, -0.084, -0.084, -0.084, -0.084, -0.084, -0.084, -0.084, -0.084, -0.084, -0.084, -0.084, -0.084, -0.084, -0.084, -0.084, -0.084, -0.084, -0.084, -0.084, -0.084, -0.084, -0.08, -0.076, -0.072, -0.068, -0.064, -0.06, -0.056, -0.052, -0.048, -0.044, -0.04, -0.036, -0.032, -0.028, -0.024, -0.02, -0.016, -0.012, -0.008, -0.004, 0.0, 0.004, 0.008, 0.012, 0.016, 0.02, 0.024, 0.028, 0.032, 0.036, 0.04, 0.044, 0.048, 0.052, 0.056, 0.06, 0.064, 0.068, 0.072, 0.072, 0.072, 0.072, 0.072, 0.072, 0.072, 0.072, 0.072, 0.072, 0.072, 0.072, 0.072, 0.072, 0.072, 0.072, 0.072, 0.072, 0.072, 0.072, 0.072, 0.072, 0.072, 0.072, 0.072, 0.072, 0.072, 0.072]",None,None,"['right', 'right']","[0.727199082961306, 1.390523791895248]","[0.2071379169356078, 0.34025862510316074]",up,1.9421375829260796,None,73.36804591596592,73.37318562506698,73.62248229107354,73.61633937503211,73.61647004098631,73.62248229107354,,74.6209496660158,,74.616621166002,pen,1,1,,,,,73.62248229107354,74.6209496660158,,,,sid,hard,D,2025-04-05_16h24.15.858,asymmetry_final,2024.2.4,120,2025-04-05 16h24.31.206325 -0400,
11,11,0,1,1,baseline,35,3.5,0.3,4.0,0.064,flat,flat_curv,0.0,-0.3,rew,pen,input_data/stims/Shape_3.50_4.00.png,input_data/stims/Shape_4.00_0.00.png,input_data/stims/Shape_0.00_0.00.png,up,2.7306843330152333,None,None,None,['left'],[0.4581409170059487],[0.39522204094100744],up,1.0891692920122296,None,0,0,0,0,0,11,11,35,74.6209496660158,,,,,,,,,74.61735149996821,0.0007182920817285776,75.5092458750587,75.50929362501483,75.53641837497707,76.53922079096083,76.53463470796123,76.53490575007163,0.00027445796877145767,77.97686100006104,77.97805491602048,78.03759516600985,78.03759516600985,78.03759516600985,78.03759516600985,78.03759516600985,78.03759516600985,78.03759516600985,79.13518520805519,"[0.064, 0.064, 0.064, 0.064, 0.064, 0.064, 0.064, 0.064, 0.064, 0.064, 0.064, 0.064, 0.064, 0.064, 0.064, 0.064, 0.064, 0.064, 0.064, 0.064, 0.064, 0.064, 0.064, 0.064, 0.064, 0.064, 0.064, 0.064, 0.064, 0.064, 0.064, 0.064, 0.064, 0.064, 0.064, 0.064, 0.064, 0.064, 0.064, 0.064, 0.064, 0.064, 0.064, 0.064, 0.064, 0.064, 0.064, 0.064, 0.064, 0.064, 0.064, 0.064, 0.064, 0.064, 0.064, 0.064, 0.06, 0.056, 0.052, 0.048, 0.044, 0.04, 0.036, 0.032, 0.028, 0.024, 0.02, 0.016, 0.012, 0.008, 0.004, 0.0, -0.004, -0.008, -0.012, -0.016, -0.02, -0.024, -0.028, -0.032, -0.036, -0.04, -0.044, -0.048, -0.052, -0.056, -0.06, -0.064, -0.068, -0.072, -0.076, -0.08, -0.084, -0.088, -0.092, -0.096, -0.1, -0.104, -0.108, -0.112, -0.116, -0.12, -0.124, -0.124, -0.124, -0.124, -0.124, -0.124, -0.124, -0.124, -0.124, -0.124, -0.124, -0.124, -0.124, -0.124, -0.124, -0.124, -0.124, -0.124, -0.124, -0.124, -0.124, -0.124, -0.124, -0.124, -0.124, -0.124, -0.124, -0.124, -0.124, -0.124]",None,None,['left'],[0.4581409170059487],[0.39522204094100744],up,1.0891692920122296,None,79.13570658303797,79.14176124997903,79.38577670801897,79.38239937496837,79.38245537504554,79.38577670801897,,80.38795129104983,,80.38333458302077,pen,1,1,,,,,79.38577670801897,80.38795129104983,,,,sid,hard,D,2025-04-05_16h24.15.858,asymmetry_final,2024.2.4,120,2025-04-05 16h24.31.206325 -0400,
12,12,0,1,1,baseline,32,3.3,0.26,4.0,-0.236,flat,curv_flat,0.0,0.26,rew,pen,input_data/stims/Shape_3.30_4.00.png,input_data/stims/Shape_0.00_0.00.png,input_data/stims/Shape_4.00_0.00.png,up,2.7306843330152333,None,None,None,['right'],[0.43506795808207244],[0.6552545418962836],up,1.321861332980916,None,0,0,0,0,0,12,12,32,80.38795129104983,,,,,,,,,80.3842307080049,0.0008722919737920165,81.27615908300504,81.27620325004682,81.30343629105482,82.30287250003312,82.29946387500968,82.29976558301132,0.0003058330621570349,83.7416482080007,83.74281900003552,83.80181945802178,83.80181945802178,83.80181945802178,83.80181945802178,83.80181945802178,83.80181945802178,83.80181945802178,85.13430183299351,"[-0.236, -0.236, -0.236, -0.236, -0.236, -0.236, -0.236, -0.236, -0.236, -0.236, -0.236, -0.236, -0.236, -0.236, -0.236, -0.236, -0.236, -0.236, -0.236, -0.236, -0.236, -0.236, -0.236, -0.236, -0.236, -0.236, -0.236, -0.236, -0.236, -0.236, -0.236, -0.236, -0.236, -0.236, -0.236, -0.236, -0.236, -0.236, -0.236, -0.236, -0.236, -0.236, -0.236, -0.236, -0.236, -0.236, -0.236, -0.236, -0.236, -0.236, -0.236, -0.236, -0.236, -0.232, -0.228, -0.224, -0.22, -0.216, -0.212, -0.208, -0.204, -0.2, -0.196, -0.192, -0.188, -0.184, -0.18, -0.176, -0.172, -0.168, -0.164, -0.16, -0.156, -0.152, -0.148, -0.144, -0.14, -0.136, -0.132, -0.128, -0.124, -0.12, -0.116, -0.112, -0.108, -0.104, -0.1, -0.096, -0.092, -0.088, -0.084, -0.08, -0.076, -0.072, -0.068, -0.064, -0.06, -0.056, -0.052, -0.048, -0.044, -0.04, -0.036, -0.032, -0.028, -0.024, -0.02, -0.016, -0.012, -0.008, -0.004, 0.0, 0.004, 0.008, 0.012, 0.016, 0.02, 0.024, 0.028, 0.032, 0.036, 0.04, 0.044, 0.048, 0.052, 0.056, 0.06, 0.064, 0.068, 0.072, 0.076, 0.08, 0.08, 0.08, 0.08, 0.08, 0.08, 0.08, 0.08, 0.08, 0.08, 0.08, 0.08, 0.08, 0.08, 0.08, 0.08, 0.08, 0.08, 0.08, 0.08, 0.08, 0.08, 0.08, 0.08, 0.08, 0.08, 0.08, 0.08, 0.08, 0.08]",None,None,['right'],[0.43506795808207244],[0.6552545418962836],up,1.321861332980916,None,85.13474270806182,85.14009550004266,85.38890899997205,85.38383570802398,85.38393166603055,85.38890899997205,,86.38741054106504,,86.3831426659599,pen,1,1,,,,,85.38890899997205,86.38741054106504,,,,sid,hard,D,2025-04-05_16h24.15.858,asymmetry_final,2024.2.4,120,2025-04-05 16h24.31.206325 -0400,
13,13,0,1,1,baseline,14,1.5,-0.1,0.0,0.256,curv,curv_flat,0.0,-0.1,pen,rew,input_data/stims/Shape_1.50_0.00.png,input_data/stims/Shape_0.00_0.00.png,input_data/stims/Shape_4.00_0.00.png,up,2.7306843330152333,None,None,None,"['left', 'right']","[1.121302374987863, 1.8526209590490907]","[0.46325504209380597, 0.1877849999582395]",up,2.28502875007689,None,0,0,0,0,0,13,13,14,86.38741054106504,,,,,,,,,86.38390633300878,0.0007408750243484974,87.47584700002335,87.47589062503539,87.50310716603417,88.4827713330742,88.47096725006122,88.47124662506394,0.0002785830292850733,89.81317300000228,89.8145198749844,89.86945104098413,89.86945104098413,89.86945104098413,89.86945104098413,89.86945104098413,89.86945104098413,89.86945104098413,92.16711495805066,"[0.256, 0.256, 0.256, 0.256, 0.256, 0.256, 0.256, 0.256, 0.256, 0.256, 0.256, 0.256, 0.256, 0.256, 0.256, 0.256, 0.256, 0.256, 0.256, 0.256, 0.256, 0.256, 0.256, 0.256, 0.256, 0.256, 0.256, 0.256, 0.256, 0.256, 0.256, 0.256, 0.256, 0.256, 0.256, 0.256, 0.256, 0.256, 0.256, 0.256, 0.256, 0.256, 0.256, 0.256, 0.256, 0.256, 0.256, 0.256, 0.256, 0.256, 0.256, 0.256, 0.256, 0.256, 0.256, 0.256, 0.256, 0.256, 0.256, 0.256, 0.256, 0.256, 0.256, 0.256, 0.256, 0.256, 0.256, 0.256, 0.256, 0.256, 0.256, 0.256, 0.256, 0.256, 0.256, 0.256, 0.256, 0.256, 0.256, 0.256, 0.256, 0.256, 0.256, 0.256, 0.256, 0.256, 0.256, 0.256, 0.256, 0.256, 0.256, 0.256, 0.256, 0.256, 0.256, 0.256, 0.256, 0.256, 0.256, 0.256, 0.256, 0.256, 0.256, 0.256, 0.256, 0.256, 0.256, 0.256, 0.256, 0.256, 0.256, 0.256, 0.256, 0.256, 0.256, 0.256, 0.256, 0.256, 0.256, 0.256, 0.256, 0.256, 0.256, 0.256, 0.256, 0.256, 0.256, 0.256, 0.256, 0.256, 0.256, 0.256, 0.256, 0.256, 0.256, 0.256, 0.252, 0.248, 0.244, 0.24, 0.236, 0.232, 0.228, 0.224, 0.22, 0.216, 0.212, 0.208, 0.204, 0.2, 0.196, 0.192, 0.188, 0.184, 0.18, 0.176, 0.172, 0.168, 0.164, 0.16, 0.156, 0.152, 0.148, 0.144, 0.14, 0.136, 0.132, 0.128, 0.124, 0.12, 0.116, 0.112, 0.108, 0.104, 0.1, 0.096, 0.092, 0.088, 0.084, 0.08, 0.076, 0.072, 0.068, 0.064, 0.06, 0.056, 0.052, 0.048, 0.048, 0.048, 0.048, 0.048, 0.048, 0.048, 0.048, 0.048, 0.048, 0.048, 0.048, 0.048, 0.048, 0.048, 0.048, 0.048, 0.048, 0.048, 0.048, 0.048, 0.048, 0.048, 0.048, 0.048, 0.048, 0.048, 0.048, 0.048, 0.048, 0.048, 0.048, 0.048, 0.048, 0.052, 0.056, 0.06, 0.064, 0.068, 0.072, 0.076, 0.08, 0.084, 0.088, 0.092, 0.096, 0.1, 0.104, 0.108, 0.112, 0.116, 0.12, 0.124, 0.128, 0.132, 0.136, 0.136, 0.136, 0.136, 0.136, 0.136, 0.136, 0.136, 0.136, 0.136, 0.136, 0.136, 0.136, 0.136, 0.136, 0.136, 0.136, 0.136, 0.136, 0.136, 0.136, 0.136, 0.136, 0.136, 0.136, 0.136, 0.136, 0.136, 0.136, 0.136, 0.136, 0.136]",None,None,"['left', 'right']","[1.121302374987863, 1.8526209590490907]","[0.46325504209380597, 0.1877849999582395]",up,2.28502875007689,None,92.16752895805985,92.17003870802,92.42136245802976,92.41642720799427,92.41654537501745,92.42136245802976,,93.42086233303417,,93.41643508302514,rew,0,-1,,,92.42136245802976,93.42086233303417,,,,,,sid,hard,D,2025-04-05_16h24.15.858,asymmetry_final,2024.2.4,120,2025-04-05 16h24.31.206325 -0400,
14,14,0,1,1,baseline,13,1.3,-0.14,0.0,-0.196,curv,flat_curv,0.0,0.14,pen,rew,input_data/stims/Shape_1.30_0.00.png,input_data/stims/Shape_4.00_0.00.png,input_data/stims/Shape_0.00_0.00.png,up,2.7306843330152333,None,None,None,['right'],[0.35981520800851285],[0.5439860000042245],up,1.1705450830049813,None,0,0,0,0,0,14,14,13,93.42086233303417,,,,,,,,,93.41716941597406,0.00072041607927531,94.40975133306347,94.40979408298153,94.4370057079941,95.43682062497828,95.43346787500195,95.43372233305126,0.0002589999930933118,96.77569758298341,96.77688129106537,96.83169833302964,96.83169833302964,96.83169833302964,96.83169833302964,96.83169833302964,96.83169833302964,96.83169833302964,98.00727762503084,"[-0.196, -0.196, -0.196, -0.196, -0.196, -0.196, -0.196, -0.196, -0.196, -0.196, -0.196, -0.196, -0.196, -0.196, -0.196, -0.196, -0.196, -0.196, -0.196, -0.196, -0.196, -0.196, -0.196, -0.196, -0.196, -0.196, -0.196, -0.196, -0.196, -0.196, -0.196, -0.196, -0.196, -0.196, -0.196, -0.196, -0.196, -0.196, -0.196, -0.196, -0.196, -0.196, -0.196, -0.196, -0.196, -0.192, -0.188, -0.184, -0.18, -0.176, -0.172, -0.168, -0.164, -0.16, -0.156, -0.152, -0.148, -0.144, -0.14, -0.136, -0.132, -0.128, -0.124, -0.12, -0.116, -0.112, -0.108, -0.104, -0.1, -0.096, -0.092, -0.088, -0.084, -0.08, -0.076, -0.072, -0.068, -0.064, -0.06, -0.056, -0.052, -0.048, -0.044, -0.04, -0.036, -0.032, -0.028, -0.024, -0.02, -0.016, -0.012, -0.008, -0.004, 0.0, 0.004, 0.008, 0.012, 0.016, 0.02, 0.024, 0.028, 0.032, 0.036, 0.04, 0.044, 0.048, 0.052, 0.052, 0.052, 0.052, 0.052, 0.052, 0.052, 0.052, 0.052, 0.052, 0.052, 0.052, 0.052, 0.052, 0.052, 0.052, 0.052, 0.052, 0.052, 0.052, 0.052, 0.052, 0.052, 0.052, 0.052, 0.052, 0.052, 0.052, 0.052, 0.052, 0.052, 0.052, 0.052, 0.052]",None,None,['right'],[0.35981520800851285],[0.5439860000042245],up,1.1705450830049813,None,98.00769724999554,98.01568912505172,98.26584137498867,98.25397566601168,98.25407829100732,98.26584137498867,98.26584137498867,99.26597366598435,99.26597366598435,99.25457116600592,rew,1,3,,,,,,,,,,sid,hard,D,2025-04-05_16h24.15.858,asymmetry_final,2024.2.4,120,2025-04-05 16h24.31.206325 -0400,
15,15,0,1,1,baseline,26,2.7,0.14,4.0,0.012,flat,curv_flat,0.0,0.14,rew,pen,input_data/stims/Shape_2.70_4.00.png,input_data/stims/Shape_0.00_0.00.png,input_data/stims/Shape_4.00_0.00.png,up,2.7306843330152333,None,None,None,['left'],[0.7848214999539778],[0.1514612080063671],up,1.0888360410463065,None,0,0,0,0,0,15,15,26,99.26597366598435,,,,,,,,,99.25529037497472,0.0007060420466586947,100.24719975003973,100.2472425410524,100.27458495798055,101.28269762499258,101.2703905410599,101.27058104099706,0.00019712501671165228,102.61252445797436,102.61390995804686,102.67936308297794,102.67936308297794,102.67936308297794,102.67936308297794,102.67936308297794,102.67936308297794,102.67936308297794,103.77458766603377,"[0.012, 0.012, 0.012, 0.012, 0.012, 0.012, 0.012, 0.012, 0.012, 0.012, 0.012, 0.012, 0.012, 0.012, 0.012, 0.012, 0.012, 0.012, 0.012, 0.012, 0.012, 0.012, 0.012, 0.012, 0.012, 0.012, 0.012, 0.012, 0.012, 0.012, 0.012, 0.012, 0.012, 0.012, 0.012, 0.012, 0.012, 0.012, 0.012, 0.012, 0.012, 0.012, 0.012, 0.012, 0.012, 0.012, 0.012, 0.012, 0.012, 0.012, 0.012, 0.012, 0.012, 0.012, 0.012, 0.012, 0.012, 0.012, 0.012, 0.012, 0.012, 0.012, 0.012, 0.012, 0.012, 0.012, 0.012, 0.012, 0.012, 0.012, 0.012, 0.012, 0.012, 0.012, 0.012, 0.012, 0.012, 0.012, 0.012, 0.012, 0.012, 0.012, 0.012, 0.012, 0.012, 0.012, 0.012, 0.012, 0.012, 0.012, 0.012, 0.012, 0.012, 0.012, 0.012, 0.008, 0.004, 0.0, -0.004, -0.008, -0.012, -0.016, -0.02, -0.024, -0.028, -0.032, -0.036, -0.04, -0.044, -0.048, -0.052, -0.052, -0.052, -0.052, -0.052, -0.052, -0.052, -0.052, -0.052, -0.052, -0.052, -0.052, -0.052, -0.052, -0.052, -0.052, -0.052, -0.052, -0.052, -0.052]",None,None,['left'],[0.7848214999539778],[0.1514612080063671],up,1.0888360410463065,None,103.77498937502969,103.78212708304636,104.03864329098724,104.03336245799437,104.03346141602378,104.03864329098724,,105.06624337506946,,105.05380520806648,pen,0,-3,104.03864329098724,105.06624337506946,,,,,,,,sid,hard,D,2025-04-05_16h24.15.858,asymmetry_final,2024.2.4,120,2025-04-05 16h24.31.206325 -0400,
16,16,0,1,1,baseline,7,0.7,-0.26,0.0,0.356,curv,flat_curv,0.0,0.26,pen,rew,input_data/stims/Shape_0.70_0.00.png,input_data/stims/Shape_4.00_0.00.png,input_data/stims/Shape_0.00_0.00.png,up,2.7306843330152333,None,None,None,"['right', 'left']","[0.3930186670040712, 0.5487808339530602]","[0.11129024997353554, 1.0320987079758197]",up,1.7865744589362293,None,0,0,0,0,0,16,16,7,105.06624337506946,,,,,,,,,105.05452512507327,0.0007015420123934746,105.99641358305234,105.99645712506026,106.02404958300758,107.0667879160028,107.05537991598248,107.05559687502682,0.0002252080012112856,108.5475526250666,108.54871537501458,108.60373133304529,108.60373133304529,108.60373133304529,108.60373133304529,108.60373133304529,108.60373133304529,108.60373133304529,110.40147499996237,"[0.356, 0.356, 0.356, 0.356, 0.356, 0.356, 0.356, 0.356, 0.356, 0.356, 0.356, 0.356, 0.356, 0.356, 0.356, 0.356, 0.356, 0.356, 0.356, 0.356, 0.356, 0.356, 0.356, 0.356, 0.356, 0.356, 0.356, 0.356, 0.356, 0.356, 0.356, 0.356, 0.356, 0.356, 0.356, 0.356, 0.356, 0.356, 0.356, 0.356, 0.356, 0.356, 0.356, 0.356, 0.356, 0.356, 0.356, 0.356, 0.36, 0.364, 0.368, 0.372, 0.376, 0.38, 0.384, 0.388, 0.392, 0.396, 0.4, 0.4, 0.4, 0.4, 0.4, 0.4, 0.396, 0.392, 0.388, 0.384, 0.38, 0.376, 0.372, 0.368, 0.364, 0.36, 0.356, 0.352, 0.348, 0.344, 0.34, 0.336, 0.332, 0.328, 0.324, 0.32, 0.316, 0.312, 0.308, 0.304, 0.3, 0.296, 0.292, 0.288, 0.284, 0.28, 0.276, 0.272, 0.268, 0.264, 0.26, 0.256, 0.252, 0.248, 0.244, 0.24, 0.236, 0.232, 0.228, 0.224, 0.22, 0.216, 0.212, 0.208, 0.204, 0.2, 0.196, 0.192, 0.188, 0.184, 0.18, 0.176, 0.172, 0.168, 0.164, 0.16, 0.156, 0.152, 0.148, 0.144, 0.14, 0.136, 0.132, 0.128, 0.124, 0.12, 0.116, 0.112, 0.108, 0.104, 0.1, 0.096, 0.092, 0.088, 0.084, 0.08, 0.076, 0.072, 0.068, 0.064, 0.06, 0.056, 0.052, 0.048, 0.044, 0.04, 0.036, 0.032, 0.028, 0.024, 0.02, 0.016, 0.012, 0.008, 0.004, 0.0, -0.004, -0.008, -0.012, -0.016, -0.02, -0.024, -0.028, -0.032, -0.036, -0.04, -0.044, -0.048, -0.052, -0.056, -0.06, -0.064, -0.068, -0.072, -0.076, -0.076, -0.076, -0.076, -0.076, -0.076, -0.076, -0.076, -0.076, -0.076, -0.076, -0.076, -0.076, -0.076, -0.076, -0.076, -0.076, -0.076, -0.076, -0.076, -0.076, -0.076, -0.076, -0.076, -0.076, -0.076, -0.076]",None,None,"['right', 'left']","[0.3930186670040712, 0.5487808339530602]","[0.11129024997353554, 1.0320987079758197]",up,1.7865744589362293,None,110.4019916249672,110.40743250004016,110.65503450005781,110.64975774998311,110.64986058301292,110.65503450005781,,111.65390908299014,,111.649838790996,rew,0,-1,,,110.65503450005781,111.65390908299014,,,,,,sid,hard,D,2025-04-05_16h24.15.858,asymmetry_final,2024.2.4,120,2025-04-05 16h24.31.206325 -0400,
17,17,0,1,1,baseline,10,1.1,-0.18,0.0,0.164,curv,curv_flat,0.0,-0.18,pen,rew,input_data/stims/Shape_1.10_0.00.png,input_data/stims/Shape_0.00_0.00.png,input_data/stims/Shape_4.00_0.00.png,up,2.7306843330152333,None,None,None,"['left', 'left']","[0.6055025409441441, 1.1675117500126362]","[0.1953298340085894, 0.3679859999101609]",up,1.727319624973461,None,0,0,0,0,0,17,17,10,111.65390908299014,,,,,,,,,111.65049812500365,0.0006581660127267241,112.59245529107284,112.59249800001271,112.62005708296783,113.61986049998086,113.61643945798278,113.6166527500609,0.00022074999287724495,115.10862404096406,115.109823915991,115.16468583303504,115.16468583303504,115.16468583303504,115.16468583303504,115.16468583303504,115.16468583303504,115.16468583303504,116.90151574998163,"[0.164, 0.164, 0.164, 0.164, 0.164, 0.164, 0.164, 0.164, 0.164, 0.164, 0.164, 0.164, 0.164, 0.164, 0.164, 0.164, 0.164, 0.164, 0.164, 0.164, 0.164, 0.164, 0.164, 0.164, 0.164, 0.164, 0.164, 0.164, 0.164, 0.164, 0.164, 0.164, 0.164, 0.164, 0.164, 0.164, 0.164, 0.164, 0.164, 0.164, 0.164, 0.164, 0.164, 0.164, 0.164, 0.164, 0.164, 0.164, 0.164, 0.164, 0.164, 0.164, 0.164, 0.164, 0.164, 0.164, 0.164, 0.164, 0.164, 0.164, 0.164, 0.164, 0.164, 0.164, 0.164, 0.164, 0.164, 0.164, 0.164, 0.164, 0.164, 0.164, 0.164, 0.16, 0.156, 0.152, 0.148, 0.144, 0.14, 0.136, 0.132, 0.128, 0.124, 0.12, 0.116, 0.112, 0.108, 0.104, 0.1, 0.096, 0.092, 0.088, 0.088, 0.088, 0.088, 0.088, 0.088, 0.088, 0.088, 0.088, 0.088, 0.088, 0.088, 0.088, 0.088, 0.088, 0.088, 0.088, 0.088, 0.088, 0.088, 0.088, 0.088, 0.088, 0.088, 0.088, 0.088, 0.088, 0.088, 0.088, 0.088, 0.088, 0.088, 0.088, 0.088, 0.088, 0.088, 0.088, 0.088, 0.088, 0.088, 0.088, 0.088, 0.088, 0.088, 0.088, 0.084, 0.08, 0.076, 0.072, 0.068, 0.064, 0.06, 0.056, 0.052, 0.048, 0.044, 0.04, 0.036, 0.032, 0.028, 0.024, 0.02, 0.016, 0.012, 0.008, 0.004, 0.0, -0.004, -0.008, -0.012, -0.016, -0.02, -0.024, -0.028, -0.032, -0.036, -0.04, -0.044, -0.048, -0.052, -0.056, -0.06, -0.064, -0.068, -0.072, -0.076, -0.08, -0.08, -0.08, -0.08, -0.08, -0.08, -0.08, -0.08, -0.08, -0.08, -0.08, -0.08, -0.08, -0.08, -0.08, -0.08, -0.08, -0.08, -0.08, -0.08, -0.08, -0.08, -0.08, -0.08, -0.08]",None,None,"['left', 'left']","[0.6055025409441441, 1.1675117500126362]","[0.1953298340085894, 0.3679859999101609]",up,1.727319624973461,None,116.90201666601934,116.90714158304036,117.15543079096824,117.15007516602054,117.15020037500653,117.15543079096824,117.15543079096824,118.15484287496656,118.15484287496656,118.15018116601277,rew,1,3,,,,,,,,,,sid,hard,D,2025-04-05_16h24.15.858,asymmetry_final,2024.2.4,120,2025-04-05 16h24.31.206325 -0400,
18,18,0,1,1,baseline,2,0.3,-0.34,0.0,0.008,curv,curv_flat,0.0,-0.34,pen,rew,input_data/stims/Shape_0.30_0.00.png,input_data/stims/Shape_0.00_0.00.png,input_data/stims/Shape_4.00_0.00.png,up,2.7306843330152333,None,None,None,['left'],[0.4938817919464782],[0.14313387498259544],up,0.8565174579853192,None,0,0,0,0,0,18,18,2,118.15484287496656,,,,,,,,,118.15090895805042,0.0007329999934881926,119.04283379099797,119.04287562496029,119.07010800007265,120.07089429104235,120.06726899999194,120.06760220800061,0.0003439999418333173,121.40958900004625,121.41076250001788,121.46622141601983,121.46622141601983,121.46622141601983,121.46622141601983,121.46622141601983,121.46622141601983,121.46622141601983,122.32659087504726,"[0.008, 0.008, 0.008, 0.008, 0.008, 0.008, 0.008, 0.008, 0.008, 0.008, 0.008, 0.008, 0.008, 0.008, 0.008, 0.008, 0.008, 0.008, 0.008, 0.008, 0.008, 0.008, 0.008, 0.008, 0.008, 0.008, 0.008, 0.008, 0.008, 0.008, 0.008, 0.008, 0.008, 0.008, 0.008, 0.008, 0.008, 0.008, 0.008, 0.008, 0.008, 0.008, 0.008, 0.008, 0.008, 0.008, 0.008, 0.008, 0.008, 0.008, 0.008, 0.008, 0.008, 0.008, 0.008, 0.008, 0.008, 0.008, 0.008, 0.008, 0.004, 0.0, -0.004, -0.008, -0.012, -0.016, -0.02, -0.024, -0.028, -0.032, -0.036, -0.04, -0.044, -0.048, -0.052, -0.056, -0.056, -0.056, -0.056, -0.056, -0.056, -0.056, -0.056, -0.056, -0.056, -0.056, -0.056, -0.056, -0.056, -0.056, -0.056, -0.056, -0.056, -0.056, -0.056, -0.056, -0.056, -0.056, -0.056, -0.056, -0.056, -0.056, -0.056]",None,None,['left'],[0.4938817919464782],[0.14313387498259544],up,0.8565174579853192,None,122.32708708301652,122.33531350002158,122.58785462507512,122.58327141602058,122.58338954101782,122.58785462507512,122.58785462507512,123.59978220798075,123.59978220798075,123.58768700005021,rew,1,3,,,,,,,,,,sid,hard,D,2025-04-05_16h24.15.858,asymmetry_final,2024.2.4,120,2025-04-05 16h24.31.206325 -0400,
19,19,0,1,1,baseline,19,1.9,-0.02,0.0,0.08,curv,flat_curv,0.0,0.02,pen,rew,input_data/stims/Shape_1.90_0.00.png,input_data/stims/Shape_4.00_0.00.png,input_data/stims/Shape_0.00_0.00.png,up,2.7306843330152333,None,None,None,['left'],[0.5491845409851521],[0.29127920896280557],up,1.0362068749964237,None,0,0,0,0,0,19,19,19,123.59978220798075,,,,,,,,,123.58840708306525,0.0007034169975668192,124.53033954103012,124.53038545802701,124.55833691603038,125.57047683303244,125.56690229102969,125.56712670798879,0.0002302920911461115,126.95911270799115,126.96031954104546,127.01868295797613,127.01868295797613,127.01868295797613,127.01868295797613,127.01868295797613,127.01868295797613,127.01868295797613,128.06826437497512,"[0.08, 0.08, 0.08, 0.08, 0.08, 0.08, 0.08, 0.08, 0.08, 0.08, 0.08, 0.08, 0.08, 0.08, 0.08, 0.08, 0.08, 0.08, 0.08, 0.08, 0.08, 0.08, 0.08, 0.08, 0.08, 0.08, 0.08, 0.08, 0.08, 0.08, 0.08, 0.08, 0.08, 0.08, 0.08, 0.08, 0.08, 0.08, 0.08, 0.08, 0.08, 0.08, 0.08, 0.08, 0.08, 0.08, 0.08, 0.08, 0.08, 0.08, 0.08, 0.08, 0.08, 0.08, 0.08, 0.08, 0.08, 0.08, 0.08, 0.08, 0.08, 0.08, 0.08, 0.08, 0.08, 0.08, 0.08, 0.076, 0.072, 0.068, 0.064, 0.06, 0.056, 0.052, 0.048, 0.044, 0.04, 0.036, 0.032, 0.028, 0.024, 0.02, 0.016, 0.012, 0.008, 0.004, 0.0, -0.004, -0.008, -0.012, -0.016, -0.02, -0.024, -0.028, -0.032, -0.036, -0.04, -0.044, -0.048, -0.052, -0.056, -0.06, -0.06, -0.06, -0.06, -0.06, -0.06, -0.06, -0.06, -0.06, -0.06, -0.06, -0.06, -0.06, -0.06, -0.06, -0.06, -0.06, -0.06, -0.06, -0.06, -0.06, -0.06, -0.06, -0.06, -0.06, -0.06]",None,None,['left'],[0.5491845409851521],[0.29127920896280557],up,1.0362068749964237,None,128.0686711249873,128.07135208300315,128.32180366606917,128.316612750059,128.3167250000406,128.32180366606917,,129.32117441599257,,129.31673800002318,rew,0,-1,,,128.32180366606917,129.32117441599257,,,,,,sid,hard,D,2025-04-05_16h24.15.858,asymmetry_final,2024.2.4,120,2025-04-05 16h24.31.206325 -0400,
20,20,0,1,1,baseline,33,3.3,0.26,4.0,-0.148,flat,flat_curv,0.0,-0.26,rew,pen,input_data/stims/Shape_3.30_4.00.png,input_data/stims/Shape_4.00_0.00.png,input_data/stims/Shape_0.00_0.00.png,up,2.7306843330152333,None,None,None,['right'],[0.5732115420978516],[0.15136170794721693],up,0.9952832080889493,None,0,0,0,0,0,20,20,33,129.32117441599257,,,,,,,,,129.31747083296068,0.0007168329320847988,130.35941483301576,130.35945829097182,130.387296791072,131.40393554104958,131.40026650007349,131.40052566607483,0.000266792019829154,132.79249633301515,132.79367425001692,132.84914050006773,132.84914050006773,132.84914050006773,132.84914050006773,132.84914050006773,132.84914050006773,132.84914050006773,133.85138995805755,"[-0.148, -0.148, -0.148, -0.148, -0.148, -0.148, -0.148, -0.148, -0.148, -0.148, -0.148, -0.148, -0.148, -0.148, -0.148, -0.148, -0.148, -0.148, -0.148, -0.148, -0.148, -0.148, -0.148, -0.148, -0.148, -0.148, -0.148, -0.148, -0.148, -0.148, -0.148, -0.148, -0.148, -0.148, -0.148, -0.148, -0.148, -0.148, -0.148, -0.148, -0.148, -0.148, -0.148, -0.148, -0.148, -0.148, -0.148, -0.148, -0.148, -0.148, -0.148, -0.148, -0.148, -0.148, -0.148, -0.148, -0.148, -0.148, -0.148, -0.148, -0.148, -0.148, -0.148, -0.148, -0.148, -0.148, -0.148, -0.148, -0.148, -0.148, -0.144, -0.14, -0.136, -0.132, -0.128, -0.124, -0.12, -0.116, -0.112, -0.108, -0.104, -0.1, -0.096, -0.092, -0.088, -0.084, -0.08, -0.076, -0.076, -0.076, -0.076, -0.076, -0.076, -0.076, -0.076, -0.076, -0.076, -0.076, -0.076, -0.076, -0.076, -0.076, -0.076, -0.076, -0.076, -0.076, -0.076, -0.076, -0.076, -0.076, -0.076, -0.076, -0.076, -0.076, -0.076, -0.076, -0.076, -0.076, -0.076, -0.076, -0.076]",None,None,['right'],[0.5732115420978516],[0.15136170794721693],up,0.9952832080889493,None,133.85180016607046,133.85700824996457,134.1047950410284,134.10010649997275,134.10022433300037,134.1047950410284,,135.10386300005484,,135.10014333296567,pen,1,1,,,,,134.1047950410284,135.10386300005484,,,,sid,hard,D,2025-04-05_16h24.15.858,asymmetry_final,2024.2.4,120,2025-04-05 16h24.31.206325 -0400,
21,21,0,1,1,baseline,31,3.1,0.22,4.0,0.032,flat,flat_curv,0.0,-0.22,rew,pen,input_data/stims/Shape_3.10_4.00.png,input_data/stims/Shape_4.00_0.00.png,input_data/stims/Shape_0.00_0.00.png,up,2.7306843330152333,None,None,None,['left'],[0.5569944579619914],[0.22317483404185623],up,1.0587715830188245,None,0,0,0,0,0,21,21,31,135.10386300005484,,,,,,,,,135.10083229106385,0.0006418749690055847,136.0427955830237,136.04283875005785,136.0693052910501,137.07029333303217,137.06676283304114,137.06699625006877,0.00023687502834945917,138.55895891599357,138.5601254160283,138.61670029105153,138.61670029105153,138.61670029105153,138.61670029105153,138.61670029105153,138.61670029105153,138.61670029105153,139.6853212909773,"[0.032, 0.032, 0.032, 0.032, 0.032, 0.032, 0.032, 0.032, 0.032, 0.032, 0.032, 0.032, 0.032, 0.032, 0.032, 0.032, 0.032, 0.032, 0.032, 0.032, 0.032, 0.032, 0.032, 0.032, 0.032, 0.032, 0.032, 0.032, 0.032, 0.032, 0.032, 0.032, 0.032, 0.032, 0.032, 0.032, 0.032, 0.032, 0.032, 0.032, 0.032, 0.032, 0.032, 0.032, 0.032, 0.032, 0.032, 0.032, 0.032, 0.032, 0.032, 0.032, 0.032, 0.032, 0.032, 0.032, 0.032, 0.032, 0.032, 0.032, 0.032, 0.032, 0.032, 0.032, 0.032, 0.032, 0.032, 0.032, 0.032, 0.028, 0.024, 0.02, 0.016, 0.012, 0.008, 0.004, 0.0, -0.004, -0.008, -0.012, -0.016, -0.02, -0.024, -0.028, -0.032, -0.036, -0.04, -0.044, -0.048, -0.052, -0.056, -0.06, -0.064, -0.068, -0.068, -0.068, -0.068, -0.068, -0.068, -0.068, -0.068, -0.068, -0.068, -0.068, -0.068, -0.068, -0.068, -0.068, -0.068, -0.068, -0.068, -0.068, -0.068, -0.068, -0.068, -0.068, -0.068, -0.068, -0.068, -0.068, -0.068, -0.068, -0.068, -0.068, -0.068, -0.068, -0.068, -0.068, -0.068]",None,None,['left'],[0.5569944579619914],[0.22317483404185623],up,1.0587715830188245,None,139.685745958006,139.69130466599017,139.93780962505843,139.93326525005978,139.93338399997447,139.93780962505843,,140.93718737503514,,140.933475791011,pen,1,1,,,,,139.93780962505843,140.93718737503514,,,,sid,hard,D,2025-04-05_16h24.15.858,asymmetry_final,2024.2.4,120,2025-04-05 16h24.31.206325 -0400,
22,22,0,1,1,baseline,34,3.5,0.3,4.0,0.032,flat,curv_flat,0.0,0.3,rew,pen,input_data/stims/Shape_3.50_4.00.png,input_data/stims/Shape_0.00_0.00.png,input_data/stims/Shape_4.00_0.00.png,up,2.7306843330152333,None,None,None,['right'],[1.0949107500491664],[0.12418029189575464],up,1.3871441669762135,None,0,0,0,0,0,22,22,34,140.93718737503514,,,,,,,,,140.9340864160331,0.0005912919295951724,141.82599745807238,141.82605245802552,141.856137958006,142.8705353330588,142.86727504106238,142.86748779099435,0.00021912495139986277,144.25942662497982,144.26060250005685,144.31295854097698,144.31295854097698,144.31295854097698,144.31295854097698,144.31295854097698,144.31295854097698,144.31295854097698,145.71052683296148,"[0.032, 0.032, 0.032, 0.032, 0.032, 0.032, 0.032, 0.032, 0.032, 0.032, 0.032, 0.032, 0.032, 0.032, 0.032, 0.032, 0.032, 0.032, 0.032, 0.032, 0.032, 0.032, 0.032, 0.032, 0.032, 0.032, 0.032, 0.032, 0.032, 0.032, 0.032, 0.032, 0.032, 0.032, 0.032, 0.032, 0.032, 0.032, 0.032, 0.032, 0.032, 0.032, 0.032, 0.032, 0.032, 0.032, 0.032, 0.032, 0.032, 0.032, 0.032, 0.032, 0.032, 0.032, 0.032, 0.032, 0.032, 0.032, 0.032, 0.032, 0.032, 0.032, 0.032, 0.032, 0.032, 0.032, 0.032, 0.032, 0.032, 0.032, 0.032, 0.032, 0.032, 0.032, 0.032, 0.032, 0.032, 0.032, 0.032, 0.032, 0.032, 0.032, 0.032, 0.032, 0.032, 0.032, 0.032, 0.032, 0.032, 0.032, 0.032, 0.032, 0.032, 0.032, 0.032, 0.032, 0.032, 0.032, 0.032, 0.032, 0.032, 0.032, 0.032, 0.032, 0.032, 0.032, 0.032, 0.032, 0.032, 0.032, 0.032, 0.032, 0.032, 0.032, 0.032, 0.032, 0.032, 0.032, 0.032, 0.032, 0.032, 0.032, 0.032, 0.032, 0.032, 0.032, 0.032, 0.032, 0.032, 0.032, 0.032, 0.032, 0.032, 0.036, 0.04, 0.044, 0.048, 0.052, 0.056, 0.06, 0.064, 0.068, 0.072, 0.076, 0.08, 0.084, 0.084, 0.084, 0.084, 0.084, 0.084, 0.084, 0.084, 0.084, 0.084, 0.084, 0.084, 0.084, 0.084, 0.084, 0.084, 0.084, 0.084, 0.084, 0.084, 0.084, 0.084, 0.084]",None,None,['right'],[1.0949107500491664],[0.12418029189575464],up,1.3871441669762135,None,145.7109977080254,145.71568670799024,145.96643016603775,145.95616587507538,145.95630487496965,145.96643016603775,,146.9662331250729,,146.95416408299934,pen,1,1,,,,,145.96643016603775,146.9662331250729,,,,sid,hard,D,2025-04-05_16h24.15.858,asymmetry_final,2024.2.4,120,2025-04-05 16h24.31.206325 -0400,
23,23,0,1,1,baseline,23,2.3,0.06,4.0,0.012,flat,flat_curv,0.0,-0.06,rew,pen,input_data/stims/Shape_2.30_4.00.png,input_data/stims/Shape_4.00_0.00.png,input_data/stims/Shape_0.00_0.00.png,up,2.7306843330152333,None,None,None,['right'],[1.6389739160658792],[0.16725449997466058],up,2.063287666067481,None,0,0,0,0,0,23,23,23,146.9662331250729,,,,,,,,,146.95484079106245,0.0006577499443665147,147.94678012502845,147.94682237505913,147.97510620800313,148.99953649996314,148.98907183296978,148.98934629105497,0.00027795799542218447,150.28129220800474,150.28244366601575,150.34104587498587,150.34104587498587,150.34104587498587,150.34104587498587,150.34104587498587,150.34104587498587,150.34104587498587,152.4078504999634,"[0.012, 0.012, 0.012, 0.012, 0.012, 0.012, 0.012, 0.012, 0.012, 0.012, 0.012, 0.012, 0.012, 0.012, 0.012, 0.012, 0.012, 0.012, 0.012, 0.012, 0.012, 0.012, 0.012, 0.012, 0.012, 0.012, 0.012, 0.012, 0.012, 0.012, 0.012, 0.012, 0.012, 0.012, 0.012, 0.012, 0.012, 0.012, 0.012, 0.012, 0.012, 0.012, 0.012, 0.012, 0.012, 0.012, 0.012, 0.012, 0.012, 0.012, 0.012, 0.012, 0.012, 0.012, 0.012, 0.012, 0.012, 0.012, 0.012, 0.012, 0.012, 0.012, 0.012, 0.012, 0.012, 0.012, 0.012, 0.012, 0.012, 0.012, 0.012, 0.012, 0.012, 0.012, 0.012, 0.012, 0.012, 0.012, 0.012, 0.012, 0.012, 0.012, 0.012, 0.012, 0.012, 0.012, 0.012, 0.012, 0.012, 0.012, 0.012, 0.012, 0.012, 0.012, 0.012, 0.012, 0.012, 0.012, 0.012, 0.012, 0.012, 0.012, 0.012, 0.012, 0.012, 0.012, 0.012, 0.012, 0.012, 0.012, 0.012, 0.012, 0.012, 0.012, 0.012, 0.012, 0.012, 0.012, 0.012, 0.012, 0.012, 0.012, 0.012, 0.012, 0.012, 0.012, 0.012, 0.012, 0.012, 0.012, 0.012, 0.012, 0.012, 0.012, 0.012, 0.012, 0.012, 0.012, 0.012, 0.012, 0.012, 0.012, 0.012, 0.012, 0.012, 0.012, 0.012, 0.012, 0.012, 0.012, 0.012, 0.012, 0.012, 0.012, 0.012, 0.012, 0.012, 0.012, 0.012, 0.012, 0.012, 0.012, 0.012, 0.012, 0.012, 0.012, 0.012, 0.012, 0.012, 0.012, 0.012, 0.012, 0.012, 0.012, 0.012, 0.012, 0.012, 0.012, 0.012, 0.012, 0.012, 0.012, 0.012, 0.012, 0.012, 0.012, 0.012, 0.012, 0.012, 0.012, 0.012, 0.012, 0.012, 0.012, 0.012, 0.012, 0.012, 0.016, 0.02, 0.024, 0.028, 0.032, 0.036, 0.04, 0.044, 0.048, 0.052, 0.056, 0.06, 0.064, 0.068, 0.072, 0.076, 0.08, 0.084, 0.088, 0.088, 0.088, 0.088, 0.088, 0.088, 0.088, 0.088, 0.088, 0.088, 0.088, 0.088, 0.088, 0.088, 0.088, 0.088, 0.088, 0.088, 0.088, 0.088, 0.088, 0.088, 0.088, 0.088, 0.088, 0.088, 0.088, 0.088, 0.088, 0.088, 0.088, 0.088, 0.088]",None,None,['right'],[1.6389739160658792],[0.16725449997466058],up,2.063287666067481,None,152.4083813750185,152.41618245805148,152.68267316604033,152.67006370797753,152.6701388329966,152.68267316604033,,153.68311133305542,,153.67043812503107,pen,0,-3,152.68267316604033,153.68311133305542,,,,,,,,sid,hard,D,2025-04-05_16h24.15.858,asymmetry_final,2024.2.4,120,2025-04-05 16h24.31.206325 -0400,
24,24,0,1,1,baseline,29,2.9,0.18,4.0,-0.304,flat,flat_curv,0.0,-0.18,rew,pen,input_data/stims/Shape_2.90_4.00.png,input_data/stims/Shape_4.00_0.00.png,input_data/stims/Shape_0.00_0.00.png,up,2.7306843330152333,None,None,None,['right'],[0.9967311670770869],[0.4753149999305606],up,1.7394974580965936,None,0,0,0,0,0,24,24,29,153.68311133305542,,,,,,,,,153.67118133301847,0.0007284169550985098,154.61310333304573,154.61314470798243,154.64057604107074,155.63691433297936,155.63347000000067,155.6337268750649,0.00026416603941470385,156.9256663749693,156.9270325000398,156.98277829098515,156.98277829098515,156.98277829098515,156.98277829098515,156.98277829098515,156.98277829098515,156.98277829098515,158.7245659159962,"[-0.304, -0.304, -0.304, -0.304, -0.304, -0.304, -0.304, -0.304, -0.304, -0.304, -0.304, -0.304, -0.304, -0.304, -0.304, -0.304, -0.304, -0.304, -0.304, -0.304, -0.304, -0.304, -0.304, -0.304, -0.304, -0.304, -0.304, -0.304, -0.304, -0.304, -0.304, -0.304, -0.304, -0.304, -0.304, -0.304, -0.304, -0.304, -0.304, -0.304, -0.304, -0.304, -0.304, -0.304, -0.304, -0.304, -0.304, -0.304, -0.304, -0.304, -0.304, -0.304, -0.304, -0.304, -0.304, -0.304, -0.304, -0.304, -0.304, -0.304, -0.304, -0.304, -0.304, -0.304, -0.304, -0.304, -0.304, -0.304, -0.304, -0.304, -0.304, -0.304, -0.304, -0.304, -0.304, -0.304, -0.304, -0.304, -0.304, -0.304, -0.304, -0.304, -0.304, -0.304, -0.304, -0.304, -0.304, -0.304, -0.304, -0.304, -0.304, -0.304, -0.304, -0.304, -0.304, -0.304, -0.304, -0.304, -0.304, -0.304, -0.304, -0.304, -0.304, -0.304, -0.304, -0.304, -0.304, -0.304, -0.304, -0.304, -0.304, -0.304, -0.304, -0.304, -0.304, -0.304, -0.304, -0.304, -0.304, -0.304, -0.304, -0.3, -0.296, -0.292, -0.288, -0.284, -0.28, -0.276, -0.272, -0.268, -0.264, -0.26, -0.256, -0.252, -0.248, -0.244, -0.24, -0.236, -0.232, -0.228, -0.224, -0.22, -0.216, -0.212, -0.208, -0.204, -0.2, -0.196, -0.192, -0.188, -0.184, -0.18, -0.176, -0.172, -0.168, -0.164, -0.16, -0.156, -0.152, -0.148, -0.144, -0.14, -0.136, -0.132, -0.128, -0.124, -0.12, -0.116, -0.112, -0.108, -0.104, -0.1, -0.096, -0.092, -0.088, -0.084, -0.08, -0.08, -0.08, -0.08, -0.08, -0.08, -0.08, -0.08, -0.08, -0.08, -0.08, -0.08, -0.08, -0.08, -0.08, -0.08, -0.08, -0.08, -0.08, -0.08, -0.08, -0.08, -0.08, -0.08, -0.08, -0.08, -0.08, -0.08, -0.08, -0.08, -0.08, -0.08, -0.08, -0.08]",None,None,['right'],[0.9967311670770869],[0.4753149999305606],up,1.7394974580965936,None,158.7250841660425,158.73254391597584,158.98314875003416,158.9708177499706,158.97087829106022,158.98314875003416,,159.98320858296938,,159.97069233306684,pen,1,1,,,,,158.98314875003416,159.98320858296938,,,,sid,hard,D,2025-04-05_16h24.15.858,asymmetry_final,2024.2.4,120,2025-04-05 16h24.31.206325 -0400,
25,25,0,1,1,baseline,27,2.7,0.14,4.0,0.044,flat,flat_curv,0.0,-0.14,rew,pen,input_data/stims/Shape_2.70_4.00.png,input_data/stims/Shape_4.00_0.00.png,input_data/stims/Shape_0.00_0.00.png,up,2.7306843330152333,None,None,None,['right'],[1.5210424159886315],[0.06321454199496657],up,1.7996196249732748,None,0,0,0,0,0,25,25,27,159.98320858296938,,,,,,,,,159.97129920800216,0.0005974159575998783,161.06314974999987,161.063190957997,161.09048770798836,162.0834765409818,162.07083579106256,162.07102837506682,0.00019966601394116879,163.56293833302334,163.56410299998242,163.61637216596864,163.61637216596864,163.61637216596864,163.61637216596864,163.61637216596864,163.61637216596864,163.61637216596864,165.41828720807098,"[0.044, 0.044, 0.044, 0.044, 0.044, 0.044, 0.044, 0.044, 0.044, 0.044, 0.044, 0.044, 0.044, 0.044, 0.044, 0.044, 0.044, 0.044, 0.044, 0.044, 0.044, 0.044, 0.044, 0.044, 0.044, 0.044, 0.044, 0.044, 0.044, 0.044, 0.044, 0.044, 0.044, 0.044, 0.044, 0.044, 0.044, 0.044, 0.044, 0.044, 0.044, 0.044, 0.044, 0.044, 0.044, 0.044, 0.044, 0.044, 0.044, 0.044, 0.044, 0.044, 0.044, 0.044, 0.044, 0.044, 0.044, 0.044, 0.044, 0.044, 0.044, 0.044, 0.044, 0.044, 0.044, 0.044, 0.044, 0.044, 0.044, 0.044, 0.044, 0.044, 0.044, 0.044, 0.044, 0.044, 0.044, 0.044, 0.044, 0.044, 0.044, 0.044, 0.044, 0.044, 0.044, 0.044, 0.044, 0.044, 0.044, 0.044, 0.044, 0.044, 0.044, 0.044, 0.044, 0.044, 0.044, 0.044, 0.044, 0.044, 0.044, 0.044, 0.044, 0.044, 0.044, 0.044, 0.044, 0.044, 0.044, 0.044, 0.044, 0.044, 0.044, 0.044, 0.044, 0.044, 0.044, 0.044, 0.044, 0.044, 0.044, 0.044, 0.044, 0.044, 0.044, 0.044, 0.044, 0.044, 0.044, 0.044, 0.044, 0.044, 0.044, 0.044, 0.044, 0.044, 0.044, 0.044, 0.044, 0.044, 0.044, 0.044, 0.044, 0.044, 0.044, 0.044, 0.044, 0.044, 0.044, 0.044, 0.044, 0.044, 0.044, 0.044, 0.044, 0.044, 0.044, 0.044, 0.044, 0.044, 0.044, 0.044, 0.044, 0.044, 0.044, 0.044, 0.044, 0.044, 0.044, 0.044, 0.044, 0.044, 0.044, 0.044, 0.044, 0.044, 0.044, 0.044, 0.044, 0.044, 0.044, 0.044, 0.044, 0.044, 0.048, 0.052, 0.056, 0.06, 0.064, 0.064, 0.064, 0.064, 0.064, 0.064, 0.064, 0.064, 0.064, 0.064, 0.064, 0.064, 0.064, 0.064, 0.064, 0.064, 0.064, 0.064, 0.064, 0.064, 0.064, 0.064, 0.064, 0.064, 0.064, 0.064, 0.064]",None,None,['right'],[1.5210424159886315],[0.06321454199496657],up,1.7996196249732748,None,165.41867433302104,165.42357595800422,165.6719906249782,165.66697987506632,165.66711541602854,165.6719906249782,,166.67125741601922,,166.66714829101693,pen,0,-3,165.6719906249782,166.67125741601922,,,,,,,,sid,hard,D,2025-04-05_16h24.15.858,asymmetry_final,2024.2.4,120,2025-04-05 16h24.31.206325 -0400,
26,26,0,1,1,baseline,28,2.9,0.18,4.0,-0.336,flat,curv_flat,0.0,0.18,rew,pen,input_data/stims/Shape_2.90_4.00.png,input_data/stims/Shape_0.00_0.00.png,input_data/stims/Shape_4.00_0.00.png,up,2.7306843330152333,None,None,None,['right'],[0.8662266249302775],[0.5438017080305144],up,1.6708328749518842,None,0,0,0,0,0,26,26,28,166.67125741601922,,,,,,,,,166.66795991605613,0.0007960830116644502,167.55986529099755,167.55990833300166,167.58751075004693,168.58822858298663,168.5844102500705,168.58464808296412,0.000247166957706213,169.9766048330348,169.97801225003786,170.0320048329886,170.0320048329886,170.0320048329886,170.0320048329886,170.0320048329886,170.0320048329886,170.0320048329886,171.70827062497847,"[-0.336, -0.336, -0.336, -0.336, -0.336, -0.336, -0.336, -0.336, -0.336, -0.336, -0.336, -0.336, -0.336, -0.336, -0.336, -0.336, -0.336, -0.336, -0.336, -0.336, -0.336, -0.336, -0.336, -0.336, -0.336, -0.336, -0.336, -0.336, -0.336, -0.336, -0.336, -0.336, -0.336, -0.336, -0.336, -0.336, -0.336, -0.336, -0.336, -0.336, -0.336, -0.336, -0.336, -0.336, -0.336, -0.336, -0.336, -0.336, -0.336, -0.336, -0.336, -0.336, -0.336, -0.336, -0.336, -0.336, -0.336, -0.336, -0.336, -0.336, -0.336, -0.336, -0.336, -0.336, -0.336, -0.336, -0.336, -0.336, -0.336, -0.336, -0.336, -0.336, -0.336, -0.336, -0.336, -0.336, -0.336, -0.336, -0.336, -0.336, -0.336, -0.336, -0.336, -0.336, -0.336, -0.336, -0.336, -0.336, -0.336, -0.336, -0.336, -0.336, -0.336, -0.336, -0.336, -0.336, -0.336, -0.336, -0.336, -0.336, -0.336, -0.336, -0.336, -0.336, -0.336, -0.332, -0.328, -0.324, -0.32, -0.316, -0.312, -0.308, -0.304, -0.3, -0.296, -0.292, -0.288, -0.284, -0.28, -0.276, -0.272, -0.268, -0.264, -0.26, -0.256, -0.252, -0.248, -0.244, -0.24, -0.236, -0.232, -0.228, -0.224, -0.22, -0.216, -0.212, -0.208, -0.204, -0.2, -0.196, -0.192, -0.188, -0.184, -0.18, -0.176, -0.172, -0.168, -0.164, -0.16, -0.156, -0.152, -0.148, -0.144, -0.14, -0.136, -0.132, -0.128, -0.124, -0.12, -0.116, -0.112, -0.108, -0.104, -0.1, -0.096, -0.092, -0.088, -0.084, -0.08, -0.076, -0.076, -0.076, -0.076, -0.076, -0.076, -0.076, -0.076, -0.076, -0.076, -0.076, -0.076, -0.076, -0.076, -0.076, -0.076, -0.076, -0.076, -0.076, -0.076, -0.076, -0.076, -0.076, -0.076, -0.076, -0.076, -0.076, -0.076, -0.076, -0.076, -0.076, -0.076, -0.076]",None,None,['right'],[0.8662266249302775],[0.5438017080305144],up,1.6708328749518842,None,171.70877504104283,171.71590420801658,171.9667013749713,171.9543980830349,171.95448454096913,171.9667013749713,,172.96643404103816,,172.9551386659732,pen,0,-3,171.9667013749713,172.96643404103816,,,,,,,,sid,hard,D,2025-04-05_16h24.15.858,asymmetry_final,2024.2.4,120,2025-04-05 16h24.31.206325 -0400,
27,27,0,1,1,baseline,16,1.7,-0.06,0.0,-0.24,curv,curv_flat,0.0,-0.06,pen,rew,input_data/stims/Shape_1.70_0.00.png,input_data/stims/Shape_0.00_0.00.png,input_data/stims/Shape_4.00_0.00.png,up,2.7306843330152333,None,None,None,['right'],[0.5404257499612868],[0.6038651670096442],up,1.382870708941482,None,0,0,0,0,0,27,27,16,172.96643404103816,,,,,,,,,172.9559591250727,0.0008000839734449983,173.9478764999658,173.94792045804206,173.97640008304734,174.97091858298518,174.96735270798672,174.9676184160635,0.0002744590165093541,176.35953891603276,176.3608657500008,176.41708183300216,176.41708183300216,176.41708183300216,176.41708183300216,176.41708183300216,176.41708183300216,176.41708183300216,177.81027691601776,"[-0.24, -0.24, -0.24, -0.24, -0.24, -0.24, -0.24, -0.24, -0.24, -0.24, -0.24, -0.24, -0.24, -0.24, -0.24, -0.24, -0.24, -0.24, -0.24, -0.24, -0.24, -0.24, -0.24, -0.24, -0.24, -0.24, -0.24, -0.24, -0.24, -0.24, -0.24, -0.24, -0.24, -0.24, -0.24, -0.24, -0.24, -0.24, -0.24, -0.24, -0.24, -0.24, -0.24, -0.24, -0.24, -0.24, -0.24, -0.24, -0.24, -0.24, -0.24, -0.24, -0.24, -0.24, -0.24, -0.24, -0.24, -0.24, -0.24, -0.24, -0.24, -0.24, -0.24, -0.24, -0.24, -0.24, -0.236, -0.232, -0.228, -0.224, -0.22, -0.216, -0.212, -0.208, -0.204, -0.2, -0.196, -0.192, -0.188, -0.184, -0.18, -0.176, -0.172, -0.168, -0.164, -0.16, -0.156, -0.152, -0.148, -0.144, -0.14, -0.136, -0.132, -0.128, -0.124, -0.12, -0.116, -0.112, -0.108, -0.104, -0.1, -0.096, -0.092, -0.088, -0.084, -0.08, -0.076, -0.072, -0.068, -0.064, -0.06, -0.056, -0.052, -0.048, -0.044, -0.04, -0.036, -0.032, -0.028, -0.024, -0.02, -0.016, -0.012, -0.008, -0.004, 0.0, 0.004, 0.008, 0.012, 0.016, 0.02, 0.024, 0.028, 0.032, 0.036, 0.04, 0.044, 0.044, 0.044, 0.044, 0.044, 0.044, 0.044, 0.044, 0.044, 0.044, 0.044, 0.044, 0.044, 0.044, 0.044, 0.044, 0.044, 0.044, 0.044, 0.044, 0.044, 0.044, 0.044, 0.044, 0.044, 0.044, 0.044, 0.044, 0.044, 0.044, 0.044]",None,None,['right'],[0.5404257499612868],[0.6038651670096442],up,1.382870708941482,None,177.81075479101855,177.8161506659817,178.06634691602085,178.05424333305564,178.05436662503053,178.06634691602085,,179.06709929101635,,179.05485229101032,rew,0,-1,,,178.06634691602085,179.06709929101635,,,,,,sid,hard,D,2025-04-05_16h24.15.858,asymmetry_final,2024.2.4,120,2025-04-05 16h24.31.206325 -0400,
28,28,0,1,1,baseline,18,1.9,-0.02,0.0,0.192,curv,curv_flat,0.0,-0.02,pen,rew,input_data/stims/Shape_1.90_0.00.png,input_data/stims/Shape_0.00_0.00.png,input_data/stims/Shape_4.00_0.00.png,up,2.7306843330152333,None,None,None,"['left', 'right']","[0.8217396669788286, 1.460486292024143]","[0.12344312504865229, 0.27212966699153185]",up,1.9699915000237525,None,0,0,0,0,0,28,28,18,179.06709929101635,,,,,,,,,179.05557020800188,0.0007067499682307243,179.99754845805,179.9975934580434,180.02521495800465,181.02193799999077,181.01756183302496,181.01787350000814,0.00031949998810887337,182.40986308304127,182.4110454999609,182.46866975002922,182.46866975002922,182.46866975002922,182.46866975002922,182.46866975002922,182.46866975002922,182.46866975002922,184.44135179102886,"[0.192, 0.192, 0.192, 0.192, 0.192, 0.192, 0.192, 0.192, 0.192, 0.192, 0.192, 0.192, 0.192, 0.192, 0.192, 0.192, 0.192, 0.192, 0.192, 0.192, 0.192, 0.192, 0.192, 0.192, 0.192, 0.192, 0.192, 0.192, 0.192, 0.192, 0.192, 0.192, 0.192, 0.192, 0.192, 0.192, 0.192, 0.192, 0.192, 0.192, 0.192, 0.192, 0.192, 0.192, 0.192, 0.192, 0.192, 0.192, 0.192, 0.192, 0.192, 0.192, 0.192, 0.192, 0.192, 0.192, 0.192, 0.192, 0.192, 0.192, 0.192, 0.192, 0.192, 0.192, 0.192, 0.192, 0.192, 0.192, 0.192, 0.192, 0.192, 0.192, 0.192, 0.192, 0.192, 0.192, 0.192, 0.192, 0.192, 0.192, 0.192, 0.192, 0.192, 0.192, 0.192, 0.192, 0.192, 0.192, 0.192, 0.192, 0.192, 0.192, 0.192, 0.192, 0.192, 0.192, 0.192, 0.192, 0.192, 0.192, 0.188, 0.184, 0.18, 0.176, 0.172, 0.168, 0.164, 0.16, 0.156, 0.152, 0.148, 0.144, 0.14, 0.14, 0.14, 0.14, 0.14, 0.14, 0.14, 0.14, 0.14, 0.14, 0.14, 0.14, 0.14, 0.14, 0.14, 0.14, 0.14, 0.14, 0.14, 0.14, 0.14, 0.14, 0.14, 0.14, 0.14, 0.14, 0.14, 0.14, 0.14, 0.14, 0.14, 0.14, 0.14, 0.14, 0.14, 0.14, 0.14, 0.14, 0.14, 0.14, 0.14, 0.14, 0.14, 0.14, 0.14, 0.14, 0.14, 0.14, 0.14, 0.14, 0.14, 0.14, 0.14, 0.14, 0.14, 0.14, 0.14, 0.14, 0.14, 0.14, 0.14, 0.14, 0.14, 0.144, 0.148, 0.152, 0.156, 0.16, 0.164, 0.168, 0.172, 0.176, 0.18, 0.184, 0.188, 0.192, 0.196, 0.2, 0.204, 0.208, 0.212, 0.216, 0.22, 0.224, 0.228, 0.232, 0.236, 0.24, 0.244, 0.248, 0.252, 0.256, 0.26, 0.264, 0.268, 0.268, 0.268, 0.268, 0.268, 0.268, 0.268, 0.268, 0.268, 0.268, 0.268, 0.268, 0.268, 0.268, 0.268, 0.268, 0.268, 0.268, 0.268, 0.268, 0.268, 0.268, 0.268, 0.268, 0.268, 0.268, 0.268, 0.268, 0.268, 0.268]",None,None,"['left', 'right']","[0.8217396669788286, 1.460486292024143]","[0.12344312504865229, 0.27212966699153185]",up,1.9699915000237525,None,184.441886833054,184.44929704105016,184.69948779104743,184.6874381660018,184.68752495804802,184.69948779104743,,185.699970207992,,185.6882243329892,rew,0,-1,,,184.69948779104743,185.699970207992,,,,,,sid,hard,D,2025-04-05_16h24.15.858,asymmetry_final,2024.2.4,120,2025-04-05 16h24.31.206325 -0400,
29,29,0,1,1,baseline,22,2.3,0.06,4.0,0.3,flat,curv_flat,0.0,0.06,rew,pen,input_data/stims/Shape_2.30_4.00.png,input_data/stims/Shape_0.00_0.00.png,input_data/stims/Shape_4.00_0.00.png,up,2.7306843330152333,None,None,None,['left'],[0.5358623750507832],[0.7752172499895096],up,1.5247342500369996,None,0,0,0,0,0,29,29,22,185.699970207992,,,,,,,,,185.6889489160385,0.0006955000571906567,186.780849999981,186.78089295804966,186.80929695803206,187.800595000037,187.78895479103085,187.78920820797794,0.00025679206009954214,189.08109033305664,189.08224116603378,189.13693237502594,189.13693237502594,189.13693237502594,189.13693237502594,189.13693237502594,189.13693237502594,189.13693237502594,190.66855000006035,"[0.3, 0.3, 0.3, 0.3, 0.3, 0.3, 0.3, 0.3, 0.3, 0.3, 0.3, 0.3, 0.3, 0.3, 0.3, 0.3, 0.3, 0.3, 0.3, 0.3, 0.3, 0.3, 0.3, 0.3, 0.3, 0.3, 0.3, 0.3, 0.3, 0.3, 0.3, 0.3, 0.3, 0.3, 0.3, 0.3, 0.3, 0.3, 0.3, 0.3, 0.3, 0.3, 0.3, 0.3, 0.3, 0.3, 0.3, 0.3, 0.3, 0.3, 0.3, 0.3, 0.3, 0.3, 0.3, 0.3, 0.3, 0.3, 0.3, 0.3, 0.3, 0.3, 0.3, 0.3, 0.3, 0.3, 0.296, 0.292, 0.288, 0.284, 0.28, 0.276, 0.272, 0.268, 0.264, 0.26, 0.256, 0.252, 0.248, 0.244, 0.24, 0.236, 0.232, 0.228, 0.224, 0.22, 0.216, 0.212, 0.208, 0.204, 0.2, 0.196, 0.192, 0.188, 0.184, 0.18, 0.176, 0.172, 0.168, 0.164, 0.16, 0.156, 0.152, 0.148, 0.144, 0.14, 0.136, 0.132, 0.128, 0.124, 0.12, 0.116, 0.112, 0.108, 0.104, 0.1, 0.096, 0.092, 0.088, 0.084, 0.08, 0.076, 0.072, 0.068, 0.064, 0.06, 0.056, 0.052, 0.048, 0.044, 0.04, 0.036, 0.032, 0.028, 0.024, 0.02, 0.016, 0.012, 0.008, 0.004, 0.0, -0.004, -0.008, -0.012, -0.016, -0.02, -0.024, -0.028, -0.032, -0.036, -0.04, -0.044, -0.048, -0.052, -0.056, -0.06, -0.064, -0.068, -0.068, -0.068, -0.068, -0.068, -0.068, -0.068, -0.068, -0.068, -0.068, -0.068, -0.068, -0.068, -0.068, -0.068, -0.068, -0.068, -0.068, -0.068, -0.068, -0.068, -0.068, -0.068, -0.068, -0.068, -0.068, -0.068, -0.068]",None,None,['left'],[0.5358623750507832],[0.7752172499895096],up,1.5247342500369996,None,190.66893708298448,190.6739850830054,190.92321583302692,190.9171020410722,190.91724183305632,190.92321583302692,,191.9215371659957,,191.91733820806257,pen,0,-3,190.92321583302692,191.9215371659957,,,,,,,,sid,hard,D,2025-04-05_16h24.15.858,asymmetry_final,2024.2.4,120,2025-04-05 16h24.31.206325 -0400,
30,30,0,1,1,baseline,0,0.1,-0.38,0.0,-0.044,curv,curv_flat,0.0,-0.38,pen,rew,input_data/stims/Shape_0.10_0.00.png,input_data/stims/Shape_0.00_0.00.png,input_data/stims/Shape_4.00_0.00.png,up,2.7306843330152333,None,None,None,"['right', 'left']","[0.6224820840870962, 1.8972033340251073]","[0.17193720792420208, 0.15602241607848555]",up,2.278035042108968,None,0,0,0,0,0,30,30,0,191.9215371659957,,,,,,,,,191.91819112503435,0.0008100830018520355,193.0101695000194,193.01021045807283,193.0390037910547,194.0221733750077,194.01805779105052,194.01835112506524,0.0003047080244868994,195.51029979099985,195.51146541605704,195.5666101659881,195.5666101659881,195.5666101659881,195.5666101659881,195.5666101659881,195.5666101659881,195.5666101659881,197.851839666022,"[-0.044, -0.044, -0.044, -0.044, -0.044, -0.044, -0.044, -0.044, -0.044, -0.044, -0.044, -0.044, -0.044, -0.044, -0.044, -0.044, -0.044, -0.044, -0.044, -0.044, -0.044, -0.044, -0.044, -0.044, -0.044, -0.044, -0.044, -0.044, -0.044, -0.044, -0.044, -0.044, -0.044, -0.044, -0.044, -0.044, -0.044, -0.044, -0.044, -0.044, -0.044, -0.044, -0.044, -0.044, -0.044, -0.044, -0.044, -0.044, -0.044, -0.044, -0.044, -0.044, -0.044, -0.044, -0.044, -0.044, -0.044, -0.044, -0.044, -0.044, -0.044, -0.044, -0.044, -0.044, -0.044, -0.044, -0.044, -0.044, -0.044, -0.044, -0.044, -0.044, -0.044, -0.044, -0.044, -0.044, -0.04, -0.036, -0.032, -0.028, -0.024, -0.02, -0.016, -0.012, -0.008, -0.004, 0.0, 0.004, 0.008, 0.012, 0.016, 0.02, 0.024, 0.028, 0.032, 0.036, 0.036, 0.036, 0.036, 0.036, 0.036, 0.036, 0.036, 0.036, 0.036, 0.036, 0.036, 0.036, 0.036, 0.036, 0.036, 0.036, 0.036, 0.036, 0.036, 0.036, 0.036, 0.036, 0.036, 0.036, 0.036, 0.036, 0.036, 0.036, 0.036, 0.036, 0.036, 0.036, 0.036, 0.036, 0.036, 0.036, 0.036, 0.036, 0.036, 0.036, 0.036, 0.036, 0.036, 0.036, 0.036, 0.036, 0.036, 0.036, 0.036, 0.036, 0.036, 0.036, 0.036, 0.036, 0.036, 0.036, 0.036, 0.036, 0.036, 0.036, 0.036, 0.036, 0.036, 0.036, 0.036, 0.036, 0.036, 0.036, 0.036, 0.036, 0.036, 0.036, 0.036, 0.036, 0.036, 0.036, 0.036, 0.036, 0.036, 0.036, 0.036, 0.036, 0.036, 0.036, 0.036, 0.036, 0.036, 0.036, 0.036, 0.036, 0.036, 0.036, 0.036, 0.036, 0.036, 0.036, 0.036, 0.036, 0.036, 0.036, 0.036, 0.036, 0.036, 0.036, 0.036, 0.036, 0.036, 0.036, 0.036, 0.036, 0.036, 0.036, 0.036, 0.036, 0.036, 0.036, 0.036, 0.036, 0.036, 0.036, 0.036, 0.036, 0.036, 0.036, 0.036, 0.036, 0.036, 0.036, 0.036, 0.036, 0.036, 0.036, 0.032, 0.028, 0.024, 0.02, 0.016, 0.012, 0.008, 0.004, 0.0, -0.004, -0.008, -0.012, -0.016, -0.02, -0.024, -0.028, -0.032, -0.036, -0.036, -0.036, -0.036, -0.036, -0.036, -0.036, -0.036, -0.036, -0.036, -0.036, -0.036, -0.036, -0.036, -0.036, -0.036, -0.036, -0.036, -0.036, -0.036, -0.036, -0.036, -0.036, -0.036, -0.036, -0.036, -0.036, -0.036, -0.036]",None,None,"['right', 'left']","[0.6224820840870962, 1.8972033340251073]","[0.17193720792420208, 0.15602241607848555]",up,2.278035042108968,None,197.85243104107212,197.8577031659661,198.10524079098832,198.10028770798817,198.10041579103563,198.10524079098832,198.10524079098832,199.10467133298516,199.10467133298516,199.10047316597775,rew,1,3,,,,,,,,,,sid,hard,D,2025-04-05_16h24.15.858,asymmetry_final,2024.2.4,120,2025-04-05 16h24.31.206325 -0400,
31,31,0,1,1,baseline,20,2.1,0.02,4.0,-0.276,flat,curv_flat,0.0,0.02,rew,pen,input_data/stims/Shape_2.10_4.00.png,input_data/stims/Shape_0.00_0.00.png,input_data/stims/Shape_4.00_0.00.png,up,2.7306843330152333,None,None,None,"['right', 'right']","[1.0191752089885995, 1.997356417006813]","[0.5754394580144435, 0.13605095795355737]",up,2.4575547500280663,None,0,0,0,0,0,31,31,20,199.10467133298516,,,,,,,,,199.1010877910303,0.0005955420201644301,200.14295895805117,200.14301741600502,200.17465966602322,201.17603529104963,201.16724558302667,201.16753120801877,0.0002935410011559725,202.60949287505355,202.610666707973,202.6654497910058,202.6654497910058,202.6654497910058,202.6654497910058,202.6654497910058,202.6654497910058,202.6654497910058,205.134138082969,"[-0.276, -0.276, -0.276, -0.276, -0.276, -0.276, -0.276, -0.276, -0.276, -0.276, -0.276, -0.276, -0.276, -0.276, -0.276, -0.276, -0.276, -0.276, -0.276, -0.276, -0.276, -0.276, -0.276, -0.276, -0.276, -0.276, -0.276, -0.276, -0.276, -0.276, -0.276, -0.276, -0.276, -0.276, -0.276, -0.276, -0.276, -0.276, -0.276, -0.276, -0.276, -0.276, -0.276, -0.276, -0.276, -0.276, -0.276, -0.276, -0.276, -0.276, -0.276, -0.276, -0.276, -0.276, -0.276, -0.276, -0.276, -0.276, -0.276, -0.276, -0.276, -0.276, -0.276, -0.276, -0.276, -0.276, -0.276, -0.276, -0.276, -0.276, -0.276, -0.276, -0.276, -0.276, -0.276, -0.276, -0.276, -0.276, -0.276, -0.276, -0.276, -0.276, -0.276, -0.276, -0.276, -0.276, -0.276, -0.276, -0.276, -0.276, -0.276, -0.276, -0.276, -0.276, -0.276, -0.276, -0.276, -0.276, -0.276, -0.276, -0.276, -0.276, -0.276, -0.276, -0.276, -0.276, -0.276, -0.276, -0.276, -0.276, -0.276, -0.276, -0.276, -0.276, -0.276, -0.276, -0.276, -0.276, -0.276, -0.276, -0.276, -0.276, -0.276, -0.276, -0.272, -0.268, -0.264, -0.26, -0.256, -0.252, -0.248, -0.244, -0.24, -0.236, -0.232, -0.228, -0.224, -0.22, -0.216, -0.212, -0.208, -0.204, -0.2, -0.196, -0.192, -0.188, -0.184, -0.18, -0.176, -0.172, -0.168, -0.164, -0.16, -0.156, -0.152, -0.148, -0.144, -0.14, -0.136, -0.132, -0.128, -0.124, -0.12, -0.116, -0.112, -0.108, -0.104, -0.1, -0.096, -0.092, -0.088, -0.084, -0.08, -0.076, -0.072, -0.068, -0.064, -0.06, -0.056, -0.052, -0.048, -0.044, -0.04, -0.036, -0.032, -0.028, -0.024, -0.02, -0.016, -0.012, -0.008, -0.004, 0.0, 0.0, 0.0, 0.0, 0.0, 0.0, 0.0, 0.0, 0.0, 0.0, 0.0, 0.0, 0.0, 0.0, 0.0, 0.0, 0.0, 0.0, 0.0, 0.0, 0.0, 0.0, 0.0, 0.0, 0.0, 0.0, 0.0, 0.0, 0.0, 0.0, 0.0, 0.0, 0.0, 0.0, 0.0, 0.0, 0.0, 0.0, 0.0, 0.0, 0.0, 0.0, 0.0, 0.0, 0.0, 0.0, 0.0, 0.0, 0.0, 0.004, 0.008, 0.012, 0.016, 0.02, 0.024, 0.028, 0.032, 0.036, 0.04, 0.044, 0.048, 0.052, 0.056, 0.06, 0.06, 0.06, 0.06, 0.06, 0.06, 0.06, 0.06, 0.06, 0.06, 0.06, 0.06, 0.06, 0.06, 0.06, 0.06, 0.06, 0.06, 0.06, 0.06, 0.06, 0.06, 0.06, 0.06, 0.06, 0.06, 0.06, 0.06, 0.06, 0.06, 0.06, 0.06, 0.06, 0.06, 0.06, 0.06, 0.06, 0.06, 0.06, 0.06, 0.06, 0.06]",None,None,"['right', 'right']","[1.0191752089885995, 1.997356417006813]","[0.5754394580144435, 0.13605095795355737]",up,2.4575547500280663,None,205.13473725004587,205.13771012506913,205.3898252500221,205.38421629101504,205.38440254097804,205.3898252500221,,206.38829308305867,,206.383969541057,pen,1,1,,,,,205.3898252500221,206.38829308305867,,,,sid,hard,D,2025-04-05_16h24.15.858,asymmetry_final,2024.2.4,120,2025-04-05 16h24.31.206325 -0400,
32,32,0,1,1,baseline,6,0.7,-0.26,0.0,0.228,curv,curv_flat,0.0,-0.26,pen,rew,input_data/stims/Shape_0.70_0.00.png,input_data/stims/Shape_0.00_0.00.png,input_data/stims/Shape_4.00_0.00.png,up,2.7306843330152333,None,None,None,['left'],[1.2101220829645172],[0.7872018329799175],up,2.20088279095944,None,0,0,0,0,0,32,32,6,206.38829308305867,,,,,,,,,206.38474712497555,0.0007565419655293226,207.27663262502756,207.276675791014,207.30276820797008,208.30416508298367,208.30060387507547,208.30084087501746,0.00024758302606642246,209.59276270796545,209.59392179106362,209.6532855000114,209.6532855000114,209.6532855000114,209.6532855000114,209.6532855000114,209.6532855000114,209.6532855000114,211.85807325004134,"[0.228, 0.228, 0.228, 0.228, 0.228, 0.228, 0.228, 0.228, 0.228, 0.228, 0.228, 0.228, 0.228, 0.228, 0.228, 0.228, 0.228, 0.228, 0.228, 0.228, 0.228, 0.228, 0.228, 0.228, 0.228, 0.228, 0.228, 0.228, 0.228, 0.228, 0.228, 0.228, 0.228, 0.228, 0.228, 0.228, 0.228, 0.228, 0.228, 0.228, 0.228, 0.228, 0.228, 0.228, 0.228, 0.228, 0.228, 0.228, 0.228, 0.228, 0.228, 0.228, 0.228, 0.228, 0.228, 0.228, 0.228, 0.228, 0.228, 0.228, 0.228, 0.228, 0.228, 0.228, 0.228, 0.228, 0.228, 0.228, 0.228, 0.228, 0.228, 0.228, 0.228, 0.228, 0.228, 0.228, 0.228, 0.228, 0.228, 0.228, 0.228, 0.228, 0.228, 0.228, 0.228, 0.228, 0.228, 0.228, 0.228, 0.228, 0.228, 0.228, 0.228, 0.228, 0.228, 0.228, 0.228, 0.228, 0.228, 0.228, 0.228, 0.228, 0.228, 0.228, 0.228, 0.228, 0.228, 0.228, 0.228, 0.228, 0.228, 0.228, 0.228, 0.228, 0.228, 0.228, 0.228, 0.228, 0.228, 0.228, 0.228, 0.228, 0.228, 0.228, 0.228, 0.228, 0.228, 0.228, 0.228, 0.228, 0.228, 0.228, 0.228, 0.228, 0.228, 0.228, 0.228, 0.228, 0.228, 0.228, 0.228, 0.228, 0.228, 0.228, 0.228, 0.228, 0.224, 0.22, 0.216, 0.212, 0.208, 0.204, 0.2, 0.196, 0.192, 0.188, 0.184, 0.18, 0.176, 0.172, 0.168, 0.164, 0.16, 0.156, 0.152, 0.148, 0.144, 0.14, 0.136, 0.132, 0.128, 0.124, 0.12, 0.116, 0.112, 0.108, 0.104, 0.1, 0.096, 0.092, 0.088, 0.084, 0.08, 0.076, 0.072, 0.068, 0.064, 0.06, 0.056, 0.052, 0.048, 0.044, 0.04, 0.036, 0.032, 0.028, 0.024, 0.02, 0.016, 0.012, 0.008, 0.004, 0.0, -0.004, -0.008, -0.012, -0.016, -0.02, -0.024, -0.028, -0.032, -0.036, -0.04, -0.044, -0.048, -0.052, -0.056, -0.06, -0.064, -0.068, -0.072, -0.076, -0.08, -0.084, -0.088, -0.092, -0.096, -0.1, -0.104, -0.108, -0.112, -0.116, -0.12, -0.124, -0.128, -0.132, -0.136, -0.136, -0.136, -0.136, -0.136, -0.136, -0.136, -0.136, -0.136, -0.136, -0.136, -0.136, -0.136, -0.136, -0.136, -0.136, -0.136, -0.136, -0.136, -0.136, -0.136, -0.136, -0.136, -0.136, -0.136, -0.136]",None,None,['left'],[1.2101220829645172],[0.7872018329799175],up,2.20088279095944,None,211.85862399998587,211.86649562499952,212.11687183298636,212.10441462497693,212.10453591600526,212.11687183298636,212.11687183298636,213.1171422910411,213.1171422910411,213.10542525001802,rew,1,3,,,,,,,,,,sid,hard,D,2025-04-05_16h24.15.858,asymmetry_final,2024.2.4,120,2025-04-05 16h24.31.206325 -0400,
33,33,0,1,1,baseline,12,1.3,-0.14,0.0,-0.124,curv,curv_flat,0.0,-0.14,pen,rew,input_data/stims/Shape_1.30_0.00.png,input_data/stims/Shape_0.00_0.00.png,input_data/stims/Shape_4.00_0.00.png,up,2.7306843330152333,None,None,None,['left'],[1.0479342920007184],[0.16806266701314598],up,1.642771500046365,None,0,0,0,0,0,33,33,12,213.1171422910411,,,,,,,,,213.1060448329663,0.000606333022005856,213.9979995000176,213.99804262502585,214.02518516604323,215.02206537500024,215.01793149998412,215.018245666055,0.00032037508208304644,216.41018650005572,216.41136487503536,216.46635520807467,216.46635520807467,216.46635520807467,216.46635520807467,216.46635520807467,216.46635520807467,216.46635520807467,218.11862583307084,"[-0.124, -0.124, -0.124, -0.124, -0.124, -0.124, -0.124, -0.124, -0.124, -0.124, -0.124, -0.124, -0.124, -0.124, -0.124, -0.124, -0.124, -0.124, -0.124, -0.124, -0.124, -0.124, -0.124, -0.124, -0.124, -0.124, -0.124, -0.124, -0.124, -0.124, -0.124, -0.124, -0.124, -0.124, -0.124, -0.124, -0.124, -0.124, -0.124, -0.124, -0.124, -0.124, -0.124, -0.124, -0.124, -0.124, -0.124, -0.124, -0.124, -0.124, -0.124, -0.124, -0.124, -0.124, -0.124, -0.124, -0.124, -0.124, -0.124, -0.124, -0.124, -0.124, -0.124, -0.124, -0.124, -0.124, -0.124, -0.124, -0.124, -0.124, -0.124, -0.124, -0.124, -0.124, -0.124, -0.124, -0.124, -0.124, -0.124, -0.124, -0.124, -0.124, -0.124, -0.124, -0.124, -0.124, -0.124, -0.124, -0.124, -0.124, -0.124, -0.124, -0.124, -0.124, -0.124, -0.124, -0.124, -0.124, -0.124, -0.124, -0.124, -0.124, -0.124, -0.124, -0.124, -0.124, -0.124, -0.124, -0.124, -0.124, -0.124, -0.124, -0.124, -0.124, -0.124, -0.124, -0.124, -0.124, -0.124, -0.124, -0.124, -0.124, -0.124, -0.124, -0.124, -0.124, -0.124, -0.128, -0.132, -0.136, -0.14, -0.144, -0.148, -0.152, -0.156, -0.16, -0.164, -0.168, -0.172, -0.176, -0.18, -0.184, -0.188, -0.192, -0.196, -0.196, -0.196, -0.196, -0.196, -0.196, -0.196, -0.196, -0.196, -0.196, -0.196, -0.196, -0.196, -0.196, -0.196, -0.196, -0.196, -0.196, -0.196, -0.196, -0.196, -0.196, -0.196, -0.196, -0.196, -0.196, -0.196, -0.196, -0.196, -0.196, -0.196, -0.196, -0.196, -0.196, -0.196, -0.196, -0.196, -0.196, -0.196, -0.196, -0.196, -0.196, -0.196, -0.196, -0.196, -0.196, -0.196, -0.196, -0.196, -0.196, -0.196, -0.196, -0.196, -0.196]",None,None,['left'],[1.0479342920007184],[0.16806266701314598],up,1.642771500046365,None,218.11914049996994,218.1244875000557,218.37189525004942,218.36716929101385,218.36727975006215,218.37189525004942,218.37189525004942,219.37136833299883,219.37136833299883,219.36725583299994,rew,1,3,,,,,,,,,,sid,hard,D,2025-04-05_16h24.15.858,asymmetry_final,2024.2.4,120,2025-04-05 16h24.31.206325 -0400,
34,34,0,1,1,baseline,15,1.5,-0.1,0.0,0.356,curv,flat_curv,0.0,0.1,pen,rew,input_data/stims/Shape_1.50_0.00.png,input_data/stims/Shape_4.00_0.00.png,input_data/stims/Shape_0.00_0.00.png,up,2.7306843330152333,None,None,None,['left'],[2.1013159999856725],[0.3273794170236215],up,2.7991184999700636,None,0,0,0,0,0,34,34,15,219.37136833299883,,,,,,,,,219.36789129104,0.0006166249513626099,220.25985550007317,220.259898624965,220.28748000005726,221.28664037503768,221.28312754107174,221.28331475006416,0.00019399996381253004,222.77526470797602,222.7764424160123,222.83129816607106,222.83129816607106,222.83129816607106,222.83129816607106,222.83129816607106,222.83129816607106,222.83129816607106,225.63561462506186,"[0.356, 0.356, 0.356, 0.356, 0.356, 0.356, 0.356, 0.356, 0.356, 0.356, 0.356, 0.356, 0.356, 0.356, 0.356, 0.356, 0.356, 0.356, 0.356, 0.356, 0.356, 0.356, 0.356, 0.356, 0.356, 0.356, 0.356, 0.356, 0.356, 0.356, 0.356, 0.356, 0.356, 0.356, 0.356, 0.356, 0.356, 0.356, 0.356, 0.356, 0.356, 0.356, 0.356, 0.356, 0.356, 0.356, 0.356, 0.356, 0.356, 0.356, 0.356, 0.356, 0.356, 0.356, 0.356, 0.356, 0.356, 0.356, 0.356, 0.356, 0.356, 0.356, 0.356, 0.356, 0.356, 0.356, 0.356, 0.356, 0.356, 0.356, 0.356, 0.356, 0.356, 0.356, 0.356, 0.356, 0.356, 0.356, 0.356, 0.356, 0.356, 0.356, 0.356, 0.356, 0.356, 0.356, 0.356, 0.356, 0.356, 0.356, 0.356, 0.356, 0.356, 0.356, 0.356, 0.356, 0.356, 0.356, 0.356, 0.356, 0.356, 0.356, 0.356, 0.356, 0.356, 0.356, 0.356, 0.356, 0.356, 0.356, 0.356, 0.356, 0.356, 0.356, 0.356, 0.356, 0.356, 0.356, 0.356, 0.356, 0.356, 0.356, 0.356, 0.356, 0.356, 0.356, 0.356, 0.356, 0.356, 0.356, 0.356, 0.356, 0.356, 0.356, 0.356, 0.356, 0.356, 0.356, 0.356, 0.356, 0.356, 0.356, 0.356, 0.356, 0.356, 0.356, 0.356, 0.356, 0.356, 0.356, 0.356, 0.356, 0.356, 0.356, 0.356, 0.356, 0.356, 0.356, 0.356, 0.356, 0.356, 0.356, 0.356, 0.356, 0.356, 0.356, 0.356, 0.356, 0.356, 0.356, 0.356, 0.356, 0.356, 0.356, 0.356, 0.356, 0.356, 0.356, 0.356, 0.356, 0.356, 0.356, 0.356, 0.356, 0.356, 0.356, 0.356, 0.356, 0.356, 0.356, 0.356, 0.356, 0.356, 0.356, 0.356, 0.356, 0.356, 0.356, 0.356, 0.356, 0.356, 0.356, 0.356, 0.356, 0.356, 0.356, 0.356, 0.356, 0.356, 0.356, 0.356, 0.356, 0.356, 0.356, 0.356, 0.356, 0.356, 0.356, 0.356, 0.356, 0.356, 0.356, 0.356, 0.356, 0.356, 0.356, 0.356, 0.356, 0.356, 0.356, 0.356, 0.356, 0.356, 0.356, 0.356, 0.356, 0.356, 0.356, 0.356, 0.356, 0.356, 0.356, 0.356, 0.356, 0.356, 0.356, 0.356, 0.356, 0.356, 0.356, 0.356, 0.356, 0.356, 0.352, 0.348, 0.344, 0.34, 0.336, 0.332, 0.328, 0.324, 0.32, 0.316, 0.312, 0.308, 0.304, 0.3, 0.296, 0.292, 0.288, 0.284, 0.28, 0.276, 0.272, 0.268, 0.264, 0.26, 0.256, 0.252, 0.248, 0.244, 0.24, 0.236, 0.232, 0.228, 0.224, 0.22, 0.216, 0.212, 0.208, 0.204, 0.2, 0.2, 0.2, 0.2, 0.2, 0.2, 0.2, 0.2, 0.2, 0.2, 0.2, 0.2, 0.2, 0.2, 0.2, 0.2, 0.2, 0.2, 0.2, 0.2, 0.2, 0.2, 0.2, 0.2, 0.2, 0.2, 0.2, 0.2, 0.2, 0.2, 0.2, 0.2, 0.2, 0.2, 0.2, 0.2, 0.2, 0.2, 0.2, 0.2, 0.2, 0.2, 0.2, 0.2, 0.2, 0.2]",None,None,['left'],[2.1013159999856725],[0.3273794170236215],up,2.7991184999700636,None,225.63625275006052,225.64140316599514,225.88920629105996,225.88401825004257,225.8841760409996,225.88920629105996,225.88920629105996,226.88837608299218,226.88837608299218,226.8841436250368,rew,1,3,,,,,,,,,,sid,hard,D,2025-04-05_16h24.15.858,asymmetry_final,2024.2.4,120,2025-04-05 16h24.31.206325 -0400,
35,35,0,1,1,baseline,9,0.9,-0.22,0.0,-0.336,curv,flat_curv,0.0,0.22,pen,rew,input_data/stims/Shape_0.90_0.00.png,input_data/stims/Shape_4.00_0.00.png,input_data/stims/Shape_0.00_0.00.png,up,2.7306843330152333,None,None,None,['right'],[1.0294357090024278],[0.9713605409488082],up,2.18545145902317,None,0,0,0,0,0,35,35,9,226.88837608299218,,,,,,,,,226.88493558298796,0.000779417110607028,227.9768309580395,227.97687408304773,228.00410495803226,228.98367341596168,228.97252412501257,228.972789249965,0.00027366599533706903,230.3146691659931,230.31604837498162,230.3793171660509,230.3793171660509,230.3793171660509,230.3793171660509,230.3793171660509,230.3793171660509,230.3793171660509,232.57004970801063,"[-0.336, -0.336, -0.336, -0.336, -0.336, -0.336, -0.336, -0.336, -0.336, -0.336, -0.336, -0.336, -0.336, -0.336, -0.336, -0.336, -0.336, -0.336, -0.336, -0.336, -0.336, -0.336, -0.336, -0.336, -0.336, -0.336, -0.336, -0.336, -0.336, -0.336, -0.336, -0.336, -0.336, -0.336, -0.336, -0.336, -0.336, -0.336, -0.336, -0.336, -0.336, -0.336, -0.336, -0.336, -0.336, -0.336, -0.336, -0.336, -0.336, -0.336, -0.336, -0.336, -0.336, -0.336, -0.336, -0.336, -0.336, -0.336, -0.336, -0.336, -0.336, -0.336, -0.336, -0.336, -0.336, -0.336, -0.336, -0.336, -0.336, -0.336, -0.336, -0.336, -0.336, -0.336, -0.336, -0.336, -0.336, -0.336, -0.336, -0.336, -0.336, -0.336, -0.336, -0.336, -0.336, -0.336, -0.336, -0.336, -0.336, -0.336, -0.336, -0.336, -0.336, -0.336, -0.336, -0.336, -0.336, -0.336, -0.336, -0.336, -0.336, -0.336, -0.336, -0.336, -0.336, -0.336, -0.336, -0.336, -0.336, -0.336, -0.336, -0.336, -0.336, -0.336, -0.336, -0.336, -0.336, -0.336, -0.336, -0.336, -0.336, -0.336, -0.336, -0.336, -0.332, -0.328, -0.324, -0.32, -0.316, -0.312, -0.308, -0.304, -0.3, -0.296, -0.292, -0.288, -0.284, -0.28, -0.276, -0.272, -0.268, -0.264, -0.26, -0.256, -0.252, -0.248, -0.244, -0.24, -0.236, -0.232, -0.228, -0.224, -0.22, -0.216, -0.212, -0.208, -0.204, -0.2, -0.196, -0.192, -0.188, -0.184, -0.18, -0.176, -0.172, -0.168, -0.164, -0.16, -0.156, -0.152, -0.148, -0.144, -0.14, -0.136, -0.132, -0.128, -0.124, -0.12, -0.116, -0.112, -0.108, -0.104, -0.1, -0.096, -0.092, -0.088, -0.084, -0.08, -0.076, -0.072, -0.068, -0.064, -0.06, -0.056, -0.052, -0.048, -0.044, -0.04, -0.036, -0.032, -0.028, -0.024, -0.02, -0.016, -0.012, -0.008, -0.004, 0.0, 0.004, 0.008, 0.012, 0.016, 0.02, 0.024, 0.028, 0.032, 0.036, 0.04, 0.044, 0.048, 0.052, 0.056, 0.06, 0.064, 0.068, 0.072, 0.076, 0.08, 0.084, 0.088, 0.092, 0.096, 0.1, 0.104, 0.108, 0.112, 0.116, 0.12, 0.124, 0.124, 0.124, 0.124, 0.124, 0.124, 0.124, 0.124, 0.124, 0.124, 0.124, 0.124, 0.124, 0.124, 0.124, 0.124, 0.124, 0.124, 0.124, 0.124, 0.124, 0.124, 0.124, 0.124]",None,None,['right'],[1.0294357090024278],[0.9713605409488082],up,2.18545145902317,None,232.57076170796063,232.5772920830641,232.82021000003442,232.81714008306153,232.81720270798542,232.82021000003442,232.82021000003442,233.82181395799853,233.82181395799853,233.81737604096998,rew,1,3,,,,,,,,,,sid,hard,D,2025-04-05_16h24.15.858,asymmetry_final,2024.2.4,120,2025-04-05 16h24.31.206325 -0400,
36,36,0,1,1,baseline,25,2.5,0.1,4.0,-0.38,flat,flat_curv,0.0,-0.1,rew,pen,input_data/stims/Shape_2.50_4.00.png,input_data/stims/Shape_4.00_0.00.png,input_data/stims/Shape_0.00_0.00.png,up,2.7306843330152333,None,None,None,['right'],[0.7360687499167398],[1.0672520000953227],up,2.0252254999941215,None,0,0,0,0,0,36,36,25,233.82181395799853,,,,,,,,,233.81825408304576,0.0008359999628737569,234.76017124997452,234.76021462504286,234.7876193750417,235.7880271250615,235.78409837500658,235.78440533299,0.0003291660686954856,237.07635112502612,237.07751916605048,237.1327953330474,237.1327953330474,237.1327953330474,237.1327953330474,237.1327953330474,237.1327953330474,237.1327953330474,239.1693581250729,"[-0.38, -0.38, -0.38, -0.38, -0.38, -0.38, -0.38, -0.38, -0.38, -0.38, -0.38, -0.38, -0.38, -0.38, -0.38, -0.38, -0.38, -0.38, -0.38, -0.38, -0.38, -0.38, -0.38, -0.38, -0.38, -0.38, -0.38, -0.38, -0.38, -0.38, -0.38, -0.38, -0.38, -0.38, -0.38, -0.38, -0.38, -0.38, -0.38, -0.38, -0.38, -0.38, -0.38, -0.38, -0.38, -0.38, -0.38, -0.38, -0.38, -0.38, -0.38, -0.38, -0.38, -0.38, -0.38, -0.38, -0.38, -0.38, -0.38, -0.38, -0.38, -0.38, -0.38, -0.38, -0.38, -0.38, -0.38, -0.38, -0.38, -0.38, -0.38, -0.38, -0.38, -0.38, -0.38, -0.38, -0.38, -0.38, -0.38, -0.38, -0.38, -0.38, -0.38, -0.38, -0.38, -0.38, -0.38, -0.38, -0.38, -0.38, -0.376, -0.372, -0.368, -0.364, -0.36, -0.356, -0.352, -0.348, -0.344, -0.34, -0.336, -0.332, -0.328, -0.324, -0.32, -0.316, -0.312, -0.308, -0.304, -0.3, -0.296, -0.292, -0.288, -0.284, -0.28, -0.276, -0.272, -0.268, -0.264, -0.26, -0.256, -0.252, -0.248, -0.244, -0.24, -0.236, -0.232, -0.228, -0.224, -0.22, -0.216, -0.212, -0.208, -0.204, -0.2, -0.196, -0.192, -0.188, -0.184, -0.18, -0.176, -0.172, -0.168, -0.164, -0.16, -0.156, -0.152, -0.148, -0.144, -0.14, -0.136, -0.132, -0.128, -0.124, -0.12, -0.116, -0.112, -0.108, -0.104, -0.1, -0.096, -0.092, -0.088, -0.084, -0.08, -0.076, -0.072, -0.068, -0.064, -0.06, -0.056, -0.052, -0.048, -0.044, -0.04, -0.036, -0.032, -0.028, -0.024, -0.02, -0.016, -0.012, -0.008, -0.004, 0.0, 0.004, 0.008, 0.012, 0.016, 0.02, 0.024, 0.028, 0.032, 0.036, 0.04, 0.044, 0.048, 0.052, 0.056, 0.06, 0.064, 0.068, 0.072, 0.076, 0.08, 0.084, 0.088, 0.092, 0.096, 0.1, 0.104, 0.108, 0.112, 0.116, 0.12, 0.12, 0.12, 0.12, 0.12, 0.12, 0.12, 0.12, 0.12, 0.12, 0.12, 0.12, 0.12, 0.12, 0.12, 0.12, 0.12, 0.12, 0.12, 0.12, 0.12, 0.12, 0.12, 0.12, 0.12, 0.12, 0.12, 0.12, 0.12]",None,None,['right'],[0.7360687499167398],[1.0672520000953227],up,2.0252254999941215,None,239.1699501250405,239.17307195800822,239.42075083300006,239.4170533750439,239.41711595805828,239.42075083300006,,240.42215574998409,,240.4177417079918,pen,0,-3,239.42075083300006,240.42215574998409,,,,,,,,sid,hard,D,2025-04-05_16h24.15.858,asymmetry_final,2024.2.4,120,2025-04-05 16h24.31.206325 -0400,
37,37,0,1,1,baseline,38,3.9,0.38,4.0,0.144,flat,curv_flat,0.0,0.38,rew,pen,input_data/stims/Shape_3.90_4.00.png,input_data/stims/Shape_0.00_0.00.png,input_data/stims/Shape_4.00_0.00.png,up,2.7306843330152333,None,None,None,['left'],[0.6630076250294223],[0.15518741693813354],up,1.092398584005423,None,0,0,0,0,0,37,37,38,240.42215574998409,,,,,,,,,240.41849516599905,0.0007034590234979987,241.46045254101045,241.46049554098863,241.4880045830505,242.48891625006218,242.4848037500633,242.48510366596747,0.00031308294273912907,243.92708179098554,243.92825066600926,243.98375383298844,243.98375383298844,243.98375383298844,243.98375383298844,243.98375383298844,243.98375383298844,243.98375383298844,245.08547637506854,"[0.144, 0.144, 0.144, 0.144, 0.144, 0.144, 0.144, 0.144, 0.144, 0.144, 0.144, 0.144, 0.144, 0.144, 0.144, 0.144, 0.144, 0.144, 0.144, 0.144, 0.144, 0.144, 0.144, 0.144, 0.144, 0.144, 0.144, 0.144, 0.144, 0.144, 0.144, 0.144, 0.144, 0.144, 0.144, 0.144, 0.144, 0.144, 0.144, 0.144, 0.144, 0.144, 0.144, 0.144, 0.144, 0.144, 0.144, 0.144, 0.144, 0.144, 0.144, 0.144, 0.144, 0.144, 0.144, 0.144, 0.144, 0.144, 0.144, 0.144, 0.144, 0.144, 0.144, 0.144, 0.144, 0.144, 0.144, 0.144, 0.144, 0.144, 0.144, 0.144, 0.144, 0.144, 0.144, 0.144, 0.144, 0.144, 0.144, 0.144, 0.144, 0.14, 0.136, 0.132, 0.128, 0.124, 0.12, 0.116, 0.112, 0.108, 0.104, 0.1, 0.096, 0.092, 0.088, 0.084, 0.08, 0.076, 0.072, 0.072, 0.072, 0.072, 0.072, 0.072, 0.072, 0.072, 0.072, 0.072, 0.072, 0.072, 0.072, 0.072, 0.072, 0.072, 0.072, 0.072, 0.072, 0.072, 0.072, 0.072, 0.072, 0.072, 0.072, 0.072, 0.072, 0.072, 0.072, 0.072, 0.072, 0.072, 0.072, 0.072, 0.072]",None,None,['left'],[0.6630076250294223],[0.15518741693813354],up,1.092398584005423,None,245.0858833329985,245.0912344160024,245.3390205410542,245.3341326660011,245.334251916036,245.3390205410542,,246.33801649999805,,246.33416258299258,pen,1,1,,,,,245.3390205410542,246.33801649999805,,,,sid,hard,D,2025-04-05_16h24.15.858,asymmetry_final,2024.2.4,120,2025-04-05 16h24.31.206325 -0400,
