thisN,thisTrialN,thisRepN,blockN,run,condition,trial_key,stim_file_pos,stim_pos,noise_pos,marker_init,shape,shape_order,true_div,div_pos,target_pos,valence,target_file,img1_file,img2_file,valence_direction,direction,marker_direction,noise_direction,shape_category,valence_resp.keys,valence_resp.rt,valence_resp.duration,block_start_resp.keys,block_start_resp.rt,block_start_resp.duration,marker.response,marker.rt,slider_resp.keys,slider_resp.rt,slider_resp.duration,submit_resp.keys,submit_resp.rt,submit_resp.duration,blocks.thisRepN,blocks.thisTrialN,blocks.thisN,blocks.thisIndex,trials.thisRepN,trials.thisTrialN,trials.thisN,trials.thisIndex,thisRow.t,notes,valence_instruct.started,valence_image.started,valence_text.started,valence_resp.started,valence_instruct.stopped,blocks.valence_resp.keys,blocks.valence_resp.rt,blocks.valence_resp.duration,block_start.started,block_start_text.started,block_start_resp.started,block_start.stopped,blocks.block_start_resp.keys,blocks.block_start_resp.rt,blocks.block_start_resp.duration,baseline.started,ISI1.started,baseline.stopped,stim.started,target_stim.started,target_stim.stopped,stim.stopped,delay.started,ISI2.started,delay.stopped,task.started,img1.started,img2.started,divider_line.started,slider_line.started,marker.started,slider_resp.started,submit_resp.started,task.stopped,positions,trials.marker.response,trials.marker.rt,trials.slider_resp.keys,trials.slider_resp.rt,trials.slider_resp.duration,trials.submit_resp.keys,trials.submit_resp.rt,trials.submit_resp.duration,anticipation.started,anticipation_text.started,anticipation_text.stopped,anticipation.stopped,feedback.started,no_resp_text.started,one_coin.started,no_resp_text.stopped,one_coin.stopped,feedback.stopped,correct,outcome,one_cross.started,one_cross.stopped,three_coin.started,three_coin.stopped,three_cross.started,three_cross.stopped,block_end.started,block_end_text.started,block_end_resp.started,block_end.stopped,block_outcome,block_bonus,blocks.block_end_resp.keys,blocks.block_end_resp.rt,blocks.block_end_resp.duration,subj,difficulty,sess_type,date,expName,psychopyVersion,frameRate,expStart,
0,0,0,4,2,baseline,150,3.1,0.22,3.0,0.032,flat,curv_flat,0.0,0.0,0.22,pen,input_data/stims/Shape_3.10_3.00.png,input_data/stims/Shape_0.00_2.00.png,input_data/stims/Shape_4.00_2.00.png,-1,1,1.0,1.0,1,up,21.76653412403539,None,up,1.0649857909884304,None,None,None,"['right', 'right', 'right']","[0.6679828330525197, 0.816968416038435, 1.1258625410264358]","[0.06765250000171363, 0.09202362498035654, 0.3600357919931412]",up,1.5734384160023183,None,0,0,0,0,0,0,0,30,23.75095145800151,,0.47401695797452703,0.7176114160101861,0.7176114160101861,0.7176114160101861,22.48945883300621,up,21.76653412403539,None,22.49837258300977,22.60485270799836,22.60485270799836,23.682593665958848,up,1.0649857909884304,None,23.744191250007134,0.06149041699245572,24.63698041596217,24.637022999988403,24.682400249992497,25.837136707967147,25.831448999990243,25.83177683298709,0.0003363330033607781,27.223879166005645,27.225232790980954,27.362930250004865,27.362930250004865,27.362930250004865,27.362930250004865,27.362930250004865,27.362930250004865,27.362930250004865,28.938765582977794,"[0.032, 0.032, 0.032, 0.032, 0.032, 0.032, 0.032, 0.032, 0.032, 0.032, 0.032, 0.032, 0.032, 0.032, 0.032, 0.032, 0.032, 0.032, 0.032, 0.032, 0.032, 0.032, 0.032, 0.032, 0.032, 0.032, 0.032, 0.032, 0.032, 0.032, 0.032, 0.032, 0.032, 0.032, 0.032, 0.032, 0.032, 0.032, 0.032, 0.032, 0.032, 0.032, 0.032, 0.032, 0.032, 0.032, 0.032, 0.032, 0.032, 0.032, 0.032, 0.032, 0.032, 0.032, 0.032, 0.032, 0.032, 0.036, 0.04, 0.044, 0.048, 0.052, 0.052, 0.052, 0.052, 0.052, 0.052, 0.052, 0.052, 0.052, 0.056, 0.06, 0.064, 0.068, 0.072, 0.076, 0.08, 0.084, 0.084, 0.084, 0.084, 0.084, 0.084, 0.084, 0.084, 0.084, 0.084, 0.084, 0.084, 0.084, 0.084, 0.084, 0.084, 0.084, 0.084, 0.084, 0.084, 0.088, 0.092, 0.096, 0.1, 0.104, 0.108, 0.112, 0.116, 0.12, 0.124, 0.128, 0.132, 0.136, 0.14, 0.144, 0.148, 0.152, 0.156, 0.16, 0.164, 0.168, 0.172, 0.176, 0.18, 0.184, 0.188, 0.192, 0.196, 0.2, 0.204, 0.208, 0.212, 0.212, 0.212, 0.212, 0.212, 0.212, 0.212, 0.212]",None,None,"['right', 'right', 'right']","[0.6679828330525197, 0.816968416038435, 1.1258625410264358]","[0.06765250000171363, 0.09202362498035654, 0.3600357919931412]",up,1.5734384160023183,None,28.939226249989588,28.963249582971912,29.22976687498158,29.220250707992818,29.22035399999004,29.22976687498158,29.22976687498158,30.288605250010733,30.288605250010733,30.281462999992073,1,1,,,,,,,,,,,,,,,,renee,patients,B,2026-03-24_17h32.25.464,asymmetry_final,2024.2.4,120,2026-03-24 17h36.04.541967 -0400,
1,1,0,4,2,baseline,141,2.1,0.02,1.0,0.136,flat,flat_curv,0.0,0.0,-0.02,pen,input_data/stims/Shape_2.10_1.00.png,input_data/stims/Shape_4.00_2.00.png,input_data/stims/Shape_0.00_2.00.png,-1,-1,1.0,-1.0,1,up,21.76653412403539,None,up,1.0649857909884304,None,None,None,['left'],[0.5115449579898268],[0.7190892500220798],up,1.3043889990076423,None,0,0,0,0,0,1,1,21,30.288605250010733,,,,,,,,,,,,,,,,,30.28249324997887,0.0009852079674601555,31.274448374984786,31.27450374996988,31.305228790966794,32.46383179095574,32.45563962496817,32.455919790954795,0.00028666696744039655,33.79784904100234,33.79934691597009,33.861883874982595,33.861883874982595,33.861883874982595,33.861883874982595,33.861883874982595,33.861883874982595,33.861883874982595,35.18229158298345,"[0.136, 0.136, 0.136, 0.136, 0.136, 0.136, 0.136, 0.136, 0.136, 0.136, 0.136, 0.136, 0.136, 0.136, 0.136, 0.136, 0.136, 0.136, 0.136, 0.136, 0.136, 0.136, 0.136, 0.136, 0.136, 0.136, 0.136, 0.136, 0.136, 0.136, 0.136, 0.136, 0.136, 0.136, 0.136, 0.136, 0.136, 0.136, 0.136, 0.136, 0.136, 0.136, 0.136, 0.136, 0.136, 0.136, 0.136, 0.132, 0.128, 0.124, 0.12, 0.116, 0.112, 0.108, 0.104, 0.1, 0.096, 0.092, 0.088, 0.084, 0.08, 0.076, 0.072, 0.068, 0.064, 0.06, 0.056, 0.052, 0.048, 0.044, 0.04, 0.036, 0.032, 0.028, 0.024, 0.02, 0.016, 0.012, 0.008, 0.004, 0.0, -0.004, -0.008, -0.012, -0.016, -0.02, -0.024, -0.028, -0.032, -0.036, -0.04, -0.044, -0.048, -0.052, -0.056, -0.06, -0.064, -0.068, -0.072, -0.076, -0.08, -0.084, -0.088, -0.092, -0.096, -0.1, -0.104, -0.108, -0.112, -0.112, -0.112, -0.112, -0.112, -0.112, -0.112, -0.112, -0.112]",None,None,['left'],[0.5115449579898268],[0.7190892500220798],up,1.3043889990076423,None,35.18265079095727,35.19745662499918,35.4551078749937,35.44805045798421,35.448150915966835,35.4551078749937,35.4551078749937,36.488111999991816,36.488111999991816,36.48161670798436,1,1,,,,,,,,,,,,,,,,renee,patients,B,2026-03-24_17h32.25.464,asymmetry_final,2024.2.4,120,2026-03-24 17h36.04.541967 -0400,
2,2,0,4,2,baseline,151,3.1,0.22,1.0,0.132,flat,flat_curv,0.0,0.0,-0.22,pen,input_data/stims/Shape_3.10_1.00.png,input_data/stims/Shape_4.00_2.00.png,input_data/stims/Shape_0.00_2.00.png,-1,-1,1.0,-1.0,1,up,21.76653412403539,None,up,1.0649857909884304,None,None,None,['left'],[0.37329308298649266],[1.2353117080056109],up,1.6341575830010697,None,0,0,0,0,0,2,2,31,36.488111999991816,,,,,,,,,,,,,,,,,36.48243970796466,0.000809290970209986,37.37435724999523,37.37440837500617,37.406650415970944,38.48683283297578,38.481858957966324,38.48215416597668,0.00030333397444337606,39.97412904095836,39.975492333003785,40.03861379099544,40.03861379099544,40.03861379099544,40.03861379099544,40.03861379099544,40.03861379099544,40.03861379099544,41.67613249999704,"[0.132, 0.132, 0.132, 0.132, 0.132, 0.132, 0.132, 0.132, 0.132, 0.132, 0.132, 0.132, 0.132, 0.132, 0.132, 0.132, 0.132, 0.132, 0.132, 0.132, 0.132, 0.132, 0.132, 0.132, 0.132, 0.132, 0.132, 0.132, 0.132, 0.132, 0.132, 0.132, 0.132, 0.132, 0.132, 0.132, 0.128, 0.124, 0.12, 0.116, 0.112, 0.108, 0.104, 0.1, 0.096, 0.092, 0.088, 0.084, 0.08, 0.076, 0.072, 0.068, 0.064, 0.06, 0.056, 0.052, 0.048, 0.044, 0.04, 0.036, 0.032, 0.028, 0.024, 0.02, 0.016, 0.012, 0.008, 0.004, 0.0, -0.004, -0.008, -0.012, -0.016, -0.02, -0.024, -0.028, -0.032, -0.036, -0.04, -0.044, -0.048, -0.052, -0.056, -0.06, -0.064, -0.068, -0.072, -0.076, -0.08, -0.084, -0.088, -0.092, -0.096, -0.1, -0.104, -0.108, -0.112, -0.116, -0.12, -0.124, -0.128, -0.132, -0.136, -0.14, -0.144, -0.148, -0.152, -0.156, -0.16, -0.164, -0.168, -0.172, -0.176, -0.18, -0.184, -0.188, -0.192, -0.196, -0.2, -0.204, -0.208, -0.212, -0.216, -0.22, -0.224, -0.228, -0.232, -0.236, -0.24, -0.244, -0.248, -0.252, -0.256, -0.26, -0.264, -0.268, -0.268, -0.268, -0.268]",None,None,['left'],[0.37329308298649266],[1.2353117080056109],up,1.6341575830010697,None,41.676550499978475,41.68322416598676,41.94751216599252,41.93592587497551,41.9360458329902,41.94751216599252,41.94751216599252,43.00442866596859,43.00442866596859,42.99829033296555,1,1,,,,,,,,,,,,,,,,renee,patients,B,2026-03-24_17h32.25.464,asymmetry_final,2024.2.4,120,2026-03-24 17h36.04.541967 -0400,
3,3,0,4,2,baseline,157,3.7,0.34,3.0,-0.148,flat,flat_curv,0.0,0.0,-0.34,pen,input_data/stims/Shape_3.70_3.00.png,input_data/stims/Shape_4.00_2.00.png,input_data/stims/Shape_0.00_2.00.png,-1,-1,-1.0,1.0,1,up,21.76653412403539,None,up,1.0649857909884304,None,None,None,['left'],[0.3251482500345446],[0.79924033296993],up,1.1580649160314351,None,0,0,0,0,0,3,3,37,43.00442866596859,,,,,,,,,,,,,,,,,42.9991052079713,0.0008082499844022095,43.99110758298775,43.991170082997996,44.02446345798671,45.11944191600196,45.11429529095767,45.11457537498791,0.00028199999360367656,46.50658329098951,46.50815299997339,46.57084295799723,46.57084295799723,46.57084295799723,46.57084295799723,46.57084295799723,46.57084295799723,46.57084295799723,47.7318649579538,"[-0.148, -0.148, -0.148, -0.148, -0.148, -0.148, -0.148, -0.148, -0.148, -0.148, -0.148, -0.148, -0.148, -0.148, -0.148, -0.148, -0.148, -0.148, -0.148, -0.148, -0.148, -0.148, -0.148, -0.148, -0.148, -0.148, -0.148, -0.148, -0.148, -0.148, -0.148, -0.152, -0.156, -0.16, -0.164, -0.168, -0.172, -0.176, -0.18, -0.184, -0.188, -0.192, -0.196, -0.2, -0.204, -0.208, -0.212, -0.216, -0.22, -0.224, -0.228, -0.232, -0.236, -0.24, -0.244, -0.248, -0.252, -0.256, -0.26, -0.264, -0.268, -0.272, -0.276, -0.28, -0.284, -0.288, -0.292, -0.296, -0.3, -0.304, -0.308, -0.312, -0.316, -0.32, -0.324, -0.328, -0.332, -0.336, -0.34, -0.344, -0.348, -0.352, -0.356, -0.36, -0.364, -0.368, -0.372, -0.376, -0.38, -0.384, -0.388, -0.388, -0.388, -0.388, -0.388]",None,None,['left'],[0.3251482500345446],[0.79924033296993],up,1.1580649160314351,None,47.7321851659799,47.738856332958676,47.98850420798408,47.981357707991265,47.98145291599212,47.98850420798408,47.98850420798408,49.00510904099792,49.00510904099792,48.9984137910069,1,1,,,,,,,,,,,,,,,,renee,patients,B,2026-03-24_17h32.25.464,asymmetry_final,2024.2.4,120,2026-03-24 17h36.04.541967 -0400,
4,4,0,4,2,baseline,154,3.5,0.3,3.0,-0.244,flat,curv_flat,0.0,0.0,0.3,pen,input_data/stims/Shape_3.50_3.00.png,input_data/stims/Shape_0.00_2.00.png,input_data/stims/Shape_4.00_2.00.png,-1,1,-1.0,1.0,1,up,21.76653412403539,None,up,1.0649857909884304,None,None,None,"['left', 'right']","[0.2628889990155585, 0.5394625409971923]","[0.199340375023894, 1.9281910000136122]",up,2.6366650410345756,None,0,0,0,0,0,4,4,34,49.00510904099792,,,,,,,,,,,,,,,,,48.99937345797662,0.0009382080170325935,49.94139399996493,49.94145004096208,49.97693549998803,51.03038904099958,51.02513545798138,51.02542104100576,0.0003076670109294355,52.517409582971595,52.51872616598848,52.58097979100421,52.58097979100421,52.58097979100421,52.58097979100421,52.58097979100421,52.58097979100421,52.58097979100421,55.23373737500515,"[-0.244, -0.244, -0.244, -0.244, -0.244, -0.244, -0.244, -0.244, -0.244, -0.244, -0.244, -0.244, -0.244, -0.244, -0.244, -0.244, -0.244, -0.244, -0.244, -0.244, -0.244, -0.244, -0.244, -0.244, -0.244, -0.248, -0.252, -0.256, -0.26, -0.264, -0.268, -0.272, -0.276, -0.28, -0.284, -0.288, -0.292, -0.296, -0.3, -0.3, -0.3, -0.3, -0.3, -0.3, -0.3, -0.3, -0.296, -0.292, -0.288, -0.284, -0.28, -0.276, -0.272, -0.268, -0.264, -0.26, -0.256, -0.252, -0.248, -0.244, -0.24, -0.236, -0.232, -0.228, -0.224, -0.22, -0.216, -0.212, -0.208, -0.204, -0.2, -0.196, -0.192, -0.188, -0.184, -0.18, -0.176, -0.172, -0.168, -0.164, -0.16, -0.156, -0.152, -0.148, -0.144, -0.14, -0.136, -0.132, -0.128, -0.124, -0.12, -0.116, -0.112, -0.108, -0.104, -0.1, -0.096, -0.092, -0.088, -0.084, -0.08, -0.076, -0.072, -0.068, -0.064, -0.06, -0.056, -0.052, -0.048, -0.044, -0.04, -0.036, -0.032, -0.028, -0.024, -0.02, -0.016, -0.012, -0.008, -0.004, 0.0, 0.004, 0.008, 0.012, 0.016, 0.02, 0.024, 0.028, 0.032, 0.036, 0.04, 0.044, 0.048, 0.052, 0.056, 0.06, 0.064, 0.068, 0.072, 0.076, 0.08, 0.084, 0.088, 0.092, 0.096, 0.1, 0.104, 0.108, 0.112, 0.116, 0.12, 0.124, 0.128, 0.132, 0.136, 0.14, 0.144, 0.148, 0.152, 0.156, 0.16, 0.164, 0.168, 0.172, 0.176, 0.18, 0.184, 0.188, 0.192, 0.196, 0.2, 0.204, 0.208, 0.212, 0.216, 0.22, 0.224, 0.228, 0.232, 0.236, 0.24, 0.244, 0.248, 0.252, 0.256, 0.26, 0.264, 0.268, 0.272, 0.276, 0.28, 0.284, 0.288, 0.292, 0.296, 0.3, 0.304, 0.304, 0.304, 0.304, 0.304, 0.304, 0.304, 0.304, 0.304, 0.304, 0.304, 0.304, 0.304]",None,None,"['left', 'right']","[0.2628889990155585, 0.5394625409971923]","[0.199340375023894, 1.9281910000136122]",up,2.6366650410345756,None,55.23453279095702,55.2474928330048,55.52179162495304,55.514757208002266,55.51486983295763,55.52179162495304,55.52179162495304,56.564357374969404,56.564357374969404,56.55415004095994,1,1,,,,,,,,,,,,,,,,renee,patients,B,2026-03-24_17h32.25.464,asymmetry_final,2024.2.4,120,2026-03-24 17h36.04.541967 -0400,
5,5,0,4,2,baseline,146,2.7,0.14,1.0,0.236,flat,curv_flat,0.0,0.0,0.14,pen,input_data/stims/Shape_2.70_1.00.png,input_data/stims/Shape_0.00_2.00.png,input_data/stims/Shape_4.00_2.00.png,-1,1,1.0,-1.0,1,up,21.76653412403539,None,up,1.0649857909884304,None,None,None,"['left', 'right']","[0.5507883329992183, 0.9779540409799665]","[0.24735224997857586, 0.15197908401023597]",up,1.3888558329781517,None,0,0,0,0,0,5,5,26,56.564357374969404,,,,,,,,,,,,,,,,,56.554933040984906,0.0007758749998174608,57.64694912498817,57.647009290987626,57.6786374579533,58.78690591600025,58.7812614159775,58.78154395800084,0.00029279099544510245,60.27360533300089,60.27501233300427,60.34279745799722,60.34279745799722,60.34279745799722,60.34279745799722,60.34279745799722,60.34279745799722,60.34279745799722,61.74758120800834,"[0.236, 0.236, 0.236, 0.236, 0.236, 0.236, 0.236, 0.236, 0.236, 0.236, 0.236, 0.236, 0.236, 0.236, 0.236, 0.236, 0.236, 0.236, 0.236, 0.236, 0.236, 0.236, 0.236, 0.236, 0.236, 0.236, 0.236, 0.236, 0.236, 0.236, 0.236, 0.236, 0.236, 0.236, 0.236, 0.236, 0.236, 0.236, 0.236, 0.236, 0.236, 0.236, 0.236, 0.236, 0.236, 0.236, 0.232, 0.228, 0.224, 0.22, 0.216, 0.212, 0.208, 0.204, 0.2, 0.196, 0.192, 0.188, 0.184, 0.18, 0.176, 0.172, 0.168, 0.164, 0.16, 0.156, 0.156, 0.156, 0.156, 0.156, 0.156, 0.156, 0.156, 0.156, 0.156, 0.156, 0.156, 0.156, 0.156, 0.156, 0.156, 0.156, 0.156, 0.156, 0.16, 0.164, 0.168, 0.172, 0.176, 0.18, 0.184, 0.188, 0.192, 0.196, 0.2, 0.204, 0.208, 0.208, 0.208, 0.208, 0.208, 0.208, 0.208, 0.208, 0.208, 0.208, 0.208, 0.208, 0.208, 0.208, 0.208, 0.208, 0.208, 0.208, 0.208, 0.208, 0.208, 0.208]",None,None,"['left', 'right']","[0.5507883329992183, 0.9779540409799665]","[0.24735224997857586, 0.15197908401023597]",up,1.3888558329781517,None,61.74797987495549,61.75272004096769,62.022445790993515,62.015363749989774,62.015474374988116,62.022445790993515,62.022445790993515,63.05368416599231,63.05368416599231,63.04797099996358,1,1,,,,,,,,,,,,,,,,renee,patients,B,2026-03-24_17h32.25.464,asymmetry_final,2024.2.4,120,2026-03-24 17h36.04.541967 -0400,
6,6,0,4,2,baseline,136,1.7,-0.06,3.0,0.064,curv,curv_flat,0.0,0.0,-0.06,rew,input_data/stims/Shape_1.70_3.00.png,input_data/stims/Shape_0.00_2.00.png,input_data/stims/Shape_4.00_2.00.png,1,1,1.0,1.0,-1,up,21.76653412403539,None,up,1.0649857909884304,None,None,None,['right'],[0.63387216697447],[0.1556439580162987],up,0.9597584169823676,None,0,0,0,0,0,6,6,16,63.05368416599231,,,,,,,,,,,,,,,,,63.048822749988176,0.0008401249651797116,64.04075174999889,64.04080912499921,64.07249191595474,65.16374745796202,65.15816241595894,65.15846408298239,0.0003166249953210354,66.55041354097193,66.55165370798204,66.61003787495429,66.61003787495429,66.61003787495429,66.61003787495429,66.61003787495429,66.61003787495429,66.61003787495429,67.58386087499093,"[0.064, 0.064, 0.064, 0.064, 0.064, 0.064, 0.064, 0.064, 0.064, 0.064, 0.064, 0.064, 0.064, 0.064, 0.064, 0.064, 0.064, 0.064, 0.064, 0.064, 0.064, 0.064, 0.064, 0.064, 0.064, 0.064, 0.064, 0.064, 0.064, 0.064, 0.064, 0.064, 0.064, 0.064, 0.064, 0.064, 0.064, 0.064, 0.064, 0.064, 0.064, 0.064, 0.064, 0.064, 0.064, 0.064, 0.064, 0.064, 0.064, 0.064, 0.064, 0.064, 0.064, 0.064, 0.064, 0.064, 0.064, 0.068, 0.072, 0.076, 0.08, 0.084, 0.088, 0.092, 0.096, 0.1, 0.104, 0.108, 0.112, 0.116, 0.116, 0.116, 0.116, 0.116, 0.116, 0.116, 0.116, 0.116, 0.116, 0.116, 0.116, 0.116, 0.116, 0.116, 0.116, 0.116]",None,None,['right'],[0.63387216697447],[0.1556439580162987],up,0.9597584169823676,None,67.58423558296636,67.59171095798956,67.84766120795393,67.83655429095961,67.83665520796785,67.84766120795393,,68.85480729100527,,68.84844087500824,0,-1,67.84766120795393,68.85480729100527,,,,,,,,,,,,,,renee,patients,B,2026-03-24_17h32.25.464,asymmetry_final,2024.2.4,120,2026-03-24 17h36.04.541967 -0400,
7,7,0,4,2,baseline,147,2.7,0.14,3.0,-0.204,flat,flat_curv,0.0,0.0,-0.14,pen,input_data/stims/Shape_2.70_3.00.png,input_data/stims/Shape_4.00_2.00.png,input_data/stims/Shape_0.00_2.00.png,-1,-1,-1.0,1.0,1,up,21.76653412403539,None,up,1.0649857909884304,None,None,None,['right'],[0.6183468329836614],[0.3561721250298433],up,1.1984262489713728,None,0,0,0,0,0,7,7,27,68.85480729100527,,,,,,,,,,,,,,,,,68.84924983297242,0.000794166000559926,69.84123816597275,69.84128845797386,69.87660737498663,70.93866341596004,70.93355274997884,70.93390633299714,0.0003578749601729214,72.27588691597339,72.27727262495318,72.34411195799476,72.34411195799476,72.34411195799476,72.34411195799476,72.34411195799476,72.34411195799476,72.34411195799476,73.54911991598783,"[-0.204, -0.204, -0.204, -0.204, -0.204, -0.204, -0.204, -0.204, -0.204, -0.204, -0.204, -0.204, -0.204, -0.204, -0.204, -0.204, -0.204, -0.204, -0.204, -0.204, -0.204, -0.204, -0.204, -0.204, -0.204, -0.204, -0.204, -0.204, -0.204, -0.204, -0.204, -0.204, -0.204, -0.204, -0.204, -0.204, -0.204, -0.204, -0.204, -0.204, -0.204, -0.204, -0.204, -0.204, -0.204, -0.204, -0.204, -0.204, -0.204, -0.204, -0.204, -0.204, -0.204, -0.204, -0.204, -0.204, -0.204, -0.2, -0.196, -0.192, -0.188, -0.184, -0.18, -0.176, -0.172, -0.168, -0.164, -0.16, -0.156, -0.152, -0.148, -0.144, -0.14, -0.136, -0.132, -0.128, -0.124, -0.12, -0.116, -0.112, -0.108, -0.104, -0.1, -0.096, -0.092, -0.092, -0.092, -0.092, -0.092, -0.092, -0.092, -0.092, -0.092, -0.092, -0.092, -0.092, -0.092, -0.092, -0.092, -0.092, -0.092]",None,None,['right'],[0.6183468329836614],[0.3561721250298433],up,1.1984262489713728,None,73.54965624999022,73.55961183295585,73.82147374999477,73.81467937497655,73.81477437500143,73.82147374999477,73.82147374999477,74.86449970799731,74.86449970799731,74.85485433298163,1,1,,,,,,,,,,,,,,,,renee,patients,B,2026-03-24_17h32.25.464,asymmetry_final,2024.2.4,120,2026-03-24 17h36.04.541967 -0400,
8,8,0,4,2,baseline,129,0.9,-0.22,1.0,0.048,curv,flat_curv,0.0,0.0,0.22,rew,input_data/stims/Shape_0.90_1.00.png,input_data/stims/Shape_4.00_2.00.png,input_data/stims/Shape_0.00_2.00.png,1,-1,1.0,-1.0,-1,up,21.76653412403539,None,up,1.0649857909884304,None,None,None,"['right', 'right']","[0.7433574580354616, 1.2715234580100514]","[0.2431887499988079, 0.1199930000002496]",up,1.4683562080026604,None,0,0,0,0,0,8,8,9,74.86449970799731,,,,,,,,,,,,,,,,,74.85570512496633,0.0008367089903913438,75.74767737498041,75.74772366596153,75.77937974996166,76.78740479098633,76.78236516600009,76.78267620800762,0.00031991698779165745,78.17463908297941,78.17593995796051,78.23589370795526,78.23589370795526,78.23589370795526,78.23589370795526,78.23589370795526,78.23589370795526,78.23589370795526,79.71037970797624,"[0.048, 0.048, 0.048, 0.048, 0.048, 0.048, 0.048, 0.048, 0.048, 0.048, 0.048, 0.048, 0.048, 0.048, 0.048, 0.048, 0.048, 0.048, 0.048, 0.048, 0.048, 0.048, 0.048, 0.048, 0.048, 0.048, 0.048, 0.048, 0.048, 0.048, 0.048, 0.048, 0.048, 0.048, 0.048, 0.048, 0.048, 0.048, 0.048, 0.048, 0.048, 0.048, 0.048, 0.048, 0.048, 0.048, 0.048, 0.048, 0.048, 0.048, 0.048, 0.048, 0.048, 0.048, 0.048, 0.048, 0.048, 0.048, 0.048, 0.048, 0.048, 0.048, 0.048, 0.048, 0.048, 0.052, 0.056, 0.06, 0.064, 0.068, 0.072, 0.076, 0.08, 0.084, 0.088, 0.092, 0.096, 0.1, 0.104, 0.108, 0.112, 0.116, 0.12, 0.12, 0.12, 0.12, 0.12, 0.12, 0.12, 0.12, 0.12, 0.12, 0.12, 0.12, 0.12, 0.12, 0.12, 0.12, 0.12, 0.12, 0.12, 0.12, 0.12, 0.12, 0.12, 0.12, 0.12, 0.12, 0.12, 0.12, 0.124, 0.128, 0.132, 0.136, 0.14, 0.144, 0.148, 0.152, 0.152, 0.152, 0.152, 0.152, 0.152, 0.152, 0.152, 0.152]",None,None,"['right', 'right']","[0.7433574580354616, 1.2715234580100514]","[0.2431887499988079, 0.1199930000002496]",up,1.4683562080026604,None,79.71079958300106,79.71734704100527,79.98135654098587,79.97066179098329,79.97076529095648,79.98135654098587,,80.98166674998356,,80.9698434160091,1,5,,,79.98135654098587,80.98166674998356,,,,,,,,,,,,renee,patients,B,2026-03-24_17h32.25.464,asymmetry_final,2024.2.4,120,2026-03-24 17h36.04.541967 -0400,
9,9,0,4,2,baseline,124,0.5,-0.3,1.0,-0.364,curv,curv_flat,0.0,0.0,-0.3,rew,input_data/stims/Shape_0.50_1.00.png,input_data/stims/Shape_0.00_2.00.png,input_data/stims/Shape_4.00_2.00.png,1,1,-1.0,-1.0,-1,up,21.76653412403539,None,up,1.0649857909884304,None,None,None,"['left', 'right', 'right', 'right']","[0.5885792909539305, 0.9185156659805216, 1.1609416239662096, 1.3073874579858966]","[0.23944450000999495, 0.1721717920154333, 0.08803658402757719, 0.10575020802207291]",up,1.5827886660117656,None,0,0,0,0,0,9,9,4,80.98166674998356,,,,,,,,,,,,,,,,,80.97070116596296,0.0008344580419361591,81.86264079099055,81.86268987500807,81.90002149995416,83.2712471249979,83.2655312079587,83.26580395799829,0.0002837090287357569,84.55786433297908,84.55937937495764,84.6737115829601,84.6737115829601,84.6737115829601,84.6737115829601,84.6737115829601,84.6737115829601,84.6737115829601,86.26304279098986,"[-0.364, -0.364, -0.364, -0.364, -0.364, -0.364, -0.364, -0.364, -0.364, -0.364, -0.364, -0.364, -0.364, -0.364, -0.364, -0.364, -0.364, -0.364, -0.364, -0.364, -0.364, -0.364, -0.364, -0.364, -0.364, -0.364, -0.364, -0.364, -0.364, -0.364, -0.364, -0.364, -0.364, -0.364, -0.364, -0.364, -0.364, -0.364, -0.364, -0.364, -0.364, -0.364, -0.364, -0.364, -0.364, -0.364, -0.364, -0.364, -0.364, -0.364, -0.364, -0.364, -0.364, -0.364, -0.364, -0.368, -0.372, -0.376, -0.38, -0.384, -0.388, -0.392, -0.396, -0.4, -0.4, -0.4, -0.4, -0.4, -0.4, -0.4, -0.4, -0.4, -0.4, -0.4, -0.4, -0.4, -0.4, -0.4, -0.4, -0.4, -0.4, -0.4, -0.396, -0.392, -0.388, -0.384, -0.38, -0.376, -0.372, -0.368, -0.364, -0.36, -0.356, -0.352, -0.348, -0.348, -0.348, -0.348, -0.348, -0.348, -0.348, -0.348, -0.344, -0.34, -0.336, -0.332, -0.328, -0.324, -0.32, -0.32, -0.32, -0.32, -0.32, -0.32, -0.316, -0.312, -0.308, -0.304, -0.3, -0.296, -0.292, -0.288, -0.288, -0.288, -0.288, -0.288, -0.288, -0.288, -0.288, -0.288, -0.288, -0.288, -0.288, -0.288, -0.288, -0.288, -0.288]",None,None,"['left', 'right', 'right', 'right']","[0.5885792909539305, 0.9185156659805216, 1.1609416239662096, 1.3073874579858966]","[0.23944450000999495, 0.1721717920154333, 0.08803658402757719, 0.10575020802207291]",up,1.5827886660117656,None,86.26339266600553,86.27083158300957,86.61522279097699,86.5900648329989,86.59021125000436,86.61522279097699,,87.74745204095962,,87.74002037500031,1,5,,,86.61522279097699,87.74745204095962,,,,,,,,,,,,renee,patients,B,2026-03-24_17h32.25.464,asymmetry_final,2024.2.4,120,2026-03-24 17h36.04.541967 -0400,
10,10,0,4,2,baseline,123,0.3,-0.34,1.0,-0.204,curv,flat_curv,0.0,0.0,0.34,rew,input_data/stims/Shape_0.30_1.00.png,input_data/stims/Shape_4.00_2.00.png,input_data/stims/Shape_0.00_2.00.png,1,-1,-1.0,-1.0,-1,up,21.76653412403539,None,up,1.0649857909884304,None,None,None,['right'],[0.6052604159922339],[1.1362729580141604],up,1.7533934579696506,None,0,0,0,0,0,10,10,3,87.74745204095962,,,,,,,,,,,,,,,,,87.74098583299201,0.0009548329981043935,88.63308254099684,88.63318695797352,88.67628066596808,89.88209479098441,89.86528358299984,89.86563695798395,0.00036112498492002487,91.20766058296431,91.20938308298355,91.29861295799492,91.29861295799492,91.29861295799492,91.29861295799492,91.29861295799492,91.29861295799492,91.29861295799492,93.05664958298439,"[-0.204, -0.204, -0.204, -0.204, -0.204, -0.204, -0.204, -0.204, -0.204, -0.204, -0.204, -0.204, -0.204, -0.204, -0.204, -0.204, -0.204, -0.204, -0.204, -0.204, -0.204, -0.204, -0.204, -0.204, -0.204, -0.204, -0.204, -0.204, -0.204, -0.204, -0.204, -0.204, -0.204, -0.204, -0.204, -0.204, -0.204, -0.204, -0.204, -0.204, -0.204, -0.204, -0.204, -0.204, -0.204, -0.204, -0.204, -0.204, -0.204, -0.204, -0.204, -0.204, -0.204, -0.204, -0.204, -0.2, -0.196, -0.192, -0.188, -0.184, -0.18, -0.176, -0.172, -0.168, -0.164, -0.16, -0.156, -0.152, -0.148, -0.144, -0.14, -0.136, -0.132, -0.128, -0.124, -0.12, -0.116, -0.112, -0.108, -0.104, -0.1, -0.096, -0.092, -0.088, -0.084, -0.08, -0.076, -0.072, -0.068, -0.064, -0.06, -0.056, -0.052, -0.048, -0.044, -0.04, -0.036, -0.032, -0.028, -0.024, -0.02, -0.016, -0.012, -0.008, -0.004, 0.0, 0.004, 0.008, 0.012, 0.016, 0.02, 0.024, 0.028, 0.032, 0.036, 0.04, 0.044, 0.048, 0.052, 0.056, 0.06, 0.064, 0.068, 0.072, 0.076, 0.08, 0.084, 0.088, 0.092, 0.096, 0.1, 0.104, 0.108, 0.112, 0.116, 0.12, 0.124, 0.128, 0.132, 0.136, 0.14, 0.144, 0.148, 0.152, 0.156, 0.16, 0.164, 0.168, 0.168, 0.168]",None,None,['right'],[0.6052604159922339],[1.1362729580141604],up,1.7533934579696506,None,93.05712966597639,93.06357025000034,93.31507124996278,93.30432237498462,93.30448695796076,93.31507124996278,,94.33173904096475,,94.32001341599971,1,5,,,93.31507124996278,94.33173904096475,,,,,,,,,,,,renee,patients,B,2026-03-24_17h32.25.464,asymmetry_final,2024.2.4,120,2026-03-24 17h36.04.541967 -0400,
11,11,0,4,2,baseline,143,2.3,0.06,3.0,-0.208,flat,flat_curv,0.0,0.0,-0.06,pen,input_data/stims/Shape_2.30_3.00.png,input_data/stims/Shape_4.00_2.00.png,input_data/stims/Shape_0.00_2.00.png,-1,-1,-1.0,1.0,1,up,21.76653412403539,None,up,1.0649857909884304,None,None,None,['right'],[1.010240207950119],[0.14307279203785583],up,1.1573716669809073,None,0,0,0,0,0,11,11,23,94.33173904096475,,,,,,,,,,,,,,,,,94.32104187499499,0.0009765410213731229,95.313038415974,95.31308424996678,95.34393141599139,96.58204091596417,96.56594949995633,96.56625316600548,0.00030983303440734744,97.9582214159891,97.9595810410101,98.0402040409972,98.0402040409972,98.0402040409972,98.0402040409972,98.0402040409972,98.0402040409972,98.0402040409972,99.20179133297643,"[-0.208, -0.208, -0.208, -0.208, -0.208, -0.208, -0.208, -0.208, -0.208, -0.208, -0.208, -0.208, -0.208, -0.208, -0.208, -0.208, -0.208, -0.208, -0.208, -0.208, -0.208, -0.208, -0.208, -0.208, -0.208, -0.208, -0.208, -0.208, -0.208, -0.208, -0.208, -0.208, -0.208, -0.208, -0.208, -0.208, -0.208, -0.208, -0.208, -0.208, -0.208, -0.208, -0.208, -0.208, -0.208, -0.208, -0.208, -0.208, -0.208, -0.208, -0.208, -0.208, -0.208, -0.208, -0.208, -0.208, -0.208, -0.208, -0.208, -0.208, -0.208, -0.208, -0.208, -0.208, -0.208, -0.208, -0.208, -0.208, -0.208, -0.208, -0.208, -0.208, -0.208, -0.208, -0.208, -0.208, -0.208, -0.208, -0.208, -0.208, -0.208, -0.208, -0.208, -0.208, -0.208, -0.208, -0.208, -0.208, -0.208, -0.208, -0.208, -0.204, -0.2, -0.196, -0.192, -0.188, -0.184, -0.18, -0.176, -0.172, -0.168, -0.164, -0.164]",None,None,['right'],[1.010240207950119],[0.14307279203785583],up,1.1573716669809073,None,99.20211741595995,99.20918954099761,99.45590804098174,99.44902758300304,99.44914991600672,99.45590804098174,99.45590804098174,100.48875762498938,100.48875762498938,100.48230491596041,1,1,,,,,,,,,,,,,,,,renee,patients,B,2026-03-24_17h32.25.464,asymmetry_final,2024.2.4,120,2026-03-24 17h36.04.541967 -0400,
12,12,0,4,2,baseline,130,1.1,-0.18,3.0,-0.244,curv,curv_flat,0.0,0.0,-0.18,rew,input_data/stims/Shape_1.10_3.00.png,input_data/stims/Shape_0.00_2.00.png,input_data/stims/Shape_4.00_2.00.png,1,1,-1.0,1.0,-1,up,21.76653412403539,None,up,1.0649857909884304,None,None,None,['right'],[1.1579231659998186],[0.32330958399688825],up,1.866936833015643,None,0,0,0,0,0,12,12,10,100.48875762498938,,,,,,,,,,,,,,,,,100.48317541595316,0.0008592079975642264,101.47504695795942,101.47509570798138,101.51011400000425,102.78593770798761,102.78124325000681,102.78152562497417,0.0002894579665735364,104.07350566599052,104.07480804098304,104.13788524997653,104.13788524997653,104.13788524997653,104.13788524997653,104.13788524997653,104.13788524997653,104.13788524997653,106.01335645798827,"[-0.244, -0.244, -0.244, -0.244, -0.244, -0.244, -0.244, -0.244, -0.244, -0.244, -0.244, -0.244, -0.244, -0.244, -0.244, -0.244, -0.244, -0.244, -0.244, -0.244, -0.244, -0.244, -0.244, -0.244, -0.244, -0.244, -0.244, -0.244, -0.244, -0.244, -0.244, -0.244, -0.244, -0.244, -0.244, -0.244, -0.244, -0.244, -0.244, -0.244, -0.244, -0.244, -0.244, -0.244, -0.244, -0.244, -0.244, -0.244, -0.244, -0.244, -0.244, -0.244, -0.244, -0.244, -0.244, -0.244, -0.244, -0.244, -0.244, -0.244, -0.244, -0.244, -0.244, -0.244, -0.244, -0.244, -0.244, -0.244, -0.244, -0.244, -0.244, -0.244, -0.244, -0.244, -0.244, -0.244, -0.244, -0.244, -0.244, -0.244, -0.244, -0.244, -0.244, -0.244, -0.244, -0.244, -0.244, -0.244, -0.244, -0.244, -0.244, -0.244, -0.244, -0.244, -0.244, -0.244, -0.244, -0.244, -0.244, -0.244, -0.244, -0.24, -0.236, -0.232, -0.228, -0.224, -0.22, -0.216, -0.212, -0.208, -0.204, -0.2, -0.196, -0.192, -0.188, -0.184, -0.18, -0.176, -0.172, -0.168, -0.164, -0.16, -0.156, -0.152, -0.148, -0.144, -0.14, -0.136, -0.132, -0.132, -0.132, -0.132, -0.132, -0.132, -0.132, -0.132, -0.132, -0.132, -0.132, -0.132, -0.132, -0.132, -0.132, -0.132, -0.132, -0.132, -0.132, -0.132, -0.132, -0.132, -0.132, -0.132, -0.132, -0.132, -0.132, -0.132, -0.132, -0.132, -0.132, -0.132]",None,None,['right'],[1.1579231659998186],[0.32330958399688825],up,1.866936833015643,None,106.01381987496279,106.02081833296688,106.27250554098282,106.26588595798239,106.26598670799285,106.27250554098282,,107.32289762498112,,107.31573999999091,1,5,,,106.27250554098282,107.32289762498112,,,,,,,,,,,,renee,patients,B,2026-03-24_17h32.25.464,asymmetry_final,2024.2.4,120,2026-03-24 17h36.04.541967 -0400,
13,13,0,4,2,baseline,128,0.9,-0.22,3.0,-0.396,curv,curv_flat,0.0,0.0,-0.22,rew,input_data/stims/Shape_0.90_3.00.png,input_data/stims/Shape_0.00_2.00.png,input_data/stims/Shape_4.00_2.00.png,1,1,-1.0,1.0,-1,up,21.76653412403539,None,up,1.0649857909884304,None,None,None,"['right', 'right', 'right']","[0.5296062909765169, 1.6164844990125857, 1.8330177490133792]","[0.8713955419952981, 0.11202875000890344, 0.1079618749790825]",up,2.071252623980399,None,0,0,0,0,0,13,13,8,107.32289762498112,,,,,,,,,,,,,,,,,107.31675179098966,0.0009857499971985817,108.4087187909754,108.40876991598634,108.44214766600635,109.53963650000514,109.53461637499277,109.53491133300122,0.00029624998569488525,111.02690349996556,111.02808337495662,111.09619320800994,111.09619320800994,111.09619320800994,111.09619320800994,111.09619320800994,111.09619320800994,111.09619320800994,113.17384008300724,"[-0.396, -0.396, -0.396, -0.396, -0.396, -0.396, -0.396, -0.396, -0.396, -0.396, -0.396, -0.396, -0.396, -0.396, -0.396, -0.396, -0.396, -0.396, -0.396, -0.396, -0.396, -0.396, -0.396, -0.396, -0.396, -0.396, -0.396, -0.396, -0.396, -0.396, -0.396, -0.396, -0.396, -0.396, -0.396, -0.396, -0.396, -0.396, -0.396, -0.396, -0.396, -0.396, -0.396, -0.396, -0.396, -0.396, -0.396, -0.396, -0.396, -0.396, -0.396, -0.396, -0.392, -0.388, -0.384, -0.38, -0.376, -0.372, -0.368, -0.364, -0.36, -0.356, -0.352, -0.348, -0.344, -0.34, -0.336, -0.332, -0.328, -0.324, -0.32, -0.316, -0.312, -0.308, -0.304, -0.3, -0.296, -0.292, -0.288, -0.284, -0.28, -0.276, -0.272, -0.268, -0.264, -0.26, -0.256, -0.252, -0.248, -0.244, -0.24, -0.236, -0.232, -0.228, -0.224, -0.22, -0.216, -0.212, -0.208, -0.204, -0.2, -0.196, -0.192, -0.188, -0.184, -0.18, -0.176, -0.172, -0.168, -0.164, -0.16, -0.156, -0.152, -0.148, -0.144, -0.14, -0.136, -0.132, -0.128, -0.124, -0.12, -0.116, -0.112, -0.108, -0.104, -0.104, -0.104, -0.104, -0.104, -0.104, -0.104, -0.104, -0.104, -0.104, -0.104, -0.104, -0.104, -0.104, -0.104, -0.104, -0.104, -0.104, -0.1, -0.096, -0.092, -0.088, -0.084, -0.08, -0.076, -0.072, -0.072, -0.072, -0.072, -0.072, -0.072, -0.072, -0.072, -0.072, -0.072, -0.072, -0.068, -0.064, -0.06, -0.056, -0.052, -0.048, -0.044, -0.04, -0.036, -0.036, -0.036, -0.036, -0.036, -0.036, -0.036, -0.036, -0.036, -0.036, -0.036, -0.036, -0.036, -0.036, -0.036]",None,None,"['right', 'right', 'right']","[0.5296062909765169, 1.6164844990125857, 1.8330177490133792]","[0.8713955419952981, 0.11202875000890344, 0.1079618749790825]",up,2.071252623980399,None,113.17434141598642,113.1815816659946,113.62337041599676,113.61617112497333,113.61629045795416,113.62337041599676,,114.63165683299303,,114.6217740830034,1,5,,,113.62337041599676,114.63165683299303,,,,,,,,,,,,renee,patients,B,2026-03-24_17h32.25.464,asymmetry_final,2024.2.4,120,2026-03-24 17h36.04.541967 -0400,
14,14,0,4,2,baseline,127,0.7,-0.26,3.0,-0.228,curv,flat_curv,0.0,0.0,0.26,rew,input_data/stims/Shape_0.70_3.00.png,input_data/stims/Shape_4.00_2.00.png,input_data/stims/Shape_0.00_2.00.png,1,-1,-1.0,1.0,-1,up,21.76653412403539,None,up,1.0649857909884304,None,None,None,['right'],[0.628159124054946],[1.4393248339765705],up,2.079361583048012,None,0,0,0,0,0,14,14,7,114.63165683299303,,,,,,,,,,,,,,,,,114.62259212497156,0.0008129160269163549,115.56451337499311,115.56456795800477,115.60011762497015,116.798956582963,116.78225362498779,116.78256458300166,0.0003244169638492167,118.07451254100306,118.07585475000087,118.1373799580033,118.1373799580033,118.1373799580033,118.1373799580033,118.1373799580033,118.1373799580033,118.1373799580033,120.22540545795346,"[-0.228, -0.228, -0.228, -0.228, -0.228, -0.228, -0.228, -0.228, -0.228, -0.228, -0.228, -0.228, -0.228, -0.228, -0.228, -0.228, -0.228, -0.228, -0.228, -0.228, -0.228, -0.228, -0.228, -0.228, -0.228, -0.228, -0.228, -0.228, -0.228, -0.228, -0.228, -0.228, -0.228, -0.228, -0.228, -0.228, -0.228, -0.228, -0.228, -0.228, -0.228, -0.228, -0.228, -0.228, -0.228, -0.228, -0.228, -0.228, -0.228, -0.228, -0.228, -0.228, -0.228, -0.228, -0.228, -0.228, -0.228, -0.228, -0.224, -0.22, -0.216, -0.212, -0.208, -0.204, -0.2, -0.196, -0.192, -0.188, -0.184, -0.18, -0.176, -0.172, -0.168, -0.164, -0.16, -0.156, -0.152, -0.148, -0.144, -0.14, -0.136, -0.132, -0.128, -0.124, -0.12, -0.116, -0.112, -0.108, -0.104, -0.1, -0.096, -0.092, -0.088, -0.084, -0.08, -0.076, -0.072, -0.068, -0.064, -0.06, -0.056, -0.052, -0.048, -0.044, -0.04, -0.036, -0.032, -0.028, -0.024, -0.02, -0.016, -0.012, -0.008, -0.004, 0.0, 0.004, 0.008, 0.012, 0.016, 0.02, 0.024, 0.028, 0.032, 0.036, 0.04, 0.044, 0.048, 0.052, 0.056, 0.06, 0.064, 0.068, 0.072, 0.076, 0.08, 0.084, 0.088, 0.092, 0.096, 0.1, 0.104, 0.108, 0.112, 0.116, 0.12, 0.124, 0.128, 0.132, 0.136, 0.14, 0.144, 0.148, 0.152, 0.156, 0.16, 0.164, 0.168, 0.172, 0.176, 0.18, 0.184, 0.188, 0.192, 0.196, 0.2, 0.204, 0.208, 0.212, 0.216, 0.22, 0.224, 0.228, 0.232, 0.236, 0.24, 0.244, 0.248, 0.252, 0.256, 0.26, 0.264, 0.264, 0.264]",None,None,['right'],[0.628159124054946],[1.4393248339765705],up,2.079361583048012,None,120.22579950001091,120.24799183296273,120.50629237497924,120.49962370796129,120.49972124997294,120.50629237497924,,121.51494945801096,,121.50432387500769,1,5,,,120.50629237497924,121.51494945801096,,,,,,,,,,,,renee,patients,B,2026-03-24_17h32.25.464,asymmetry_final,2024.2.4,120,2026-03-24 17h36.04.541967 -0400,
15,15,0,4,2,baseline,140,2.1,0.02,3.0,0.148,flat,curv_flat,0.0,0.0,0.02,pen,input_data/stims/Shape_2.10_3.00.png,input_data/stims/Shape_0.00_2.00.png,input_data/stims/Shape_4.00_2.00.png,-1,1,1.0,1.0,1,up,21.76653412403539,None,up,1.0649857909884304,None,None,None,"['left', 'right']","[0.8404027079814114, 1.372555916022975]","[0.11917900003027171, 0.17182395799318328]",up,1.6378677079919726,None,0,0,0,0,0,15,15,20,121.51494945801096,,,,,,,,,,,,,,,,,121.50520308298292,0.0008632090175524354,122.59717366599943,122.59723524999572,122.62657066597603,123.74407095799688,123.73487470799591,123.73521512496518,0.00033895898377522826,125.2271373749827,125.22837020800216,125.2927837909665,125.2927837909665,125.2927837909665,125.2927837909665,125.2927837909665,125.2927837909665,125.2927837909665,126.9323560000048,"[0.148, 0.148, 0.148, 0.148, 0.148, 0.148, 0.148, 0.148, 0.148, 0.148, 0.148, 0.148, 0.148, 0.148, 0.148, 0.148, 0.148, 0.148, 0.148, 0.148, 0.148, 0.148, 0.148, 0.148, 0.148, 0.148, 0.148, 0.148, 0.148, 0.148, 0.148, 0.148, 0.148, 0.148, 0.148, 0.148, 0.148, 0.148, 0.148, 0.148, 0.148, 0.148, 0.148, 0.148, 0.148, 0.148, 0.148, 0.148, 0.148, 0.148, 0.148, 0.148, 0.148, 0.148, 0.148, 0.148, 0.148, 0.148, 0.148, 0.148, 0.148, 0.148, 0.148, 0.148, 0.148, 0.148, 0.148, 0.148, 0.148, 0.148, 0.148, 0.148, 0.148, 0.148, 0.144, 0.14, 0.136, 0.132, 0.128, 0.124, 0.12, 0.116, 0.112, 0.112, 0.112, 0.112, 0.112, 0.112, 0.112, 0.112, 0.112, 0.112, 0.112, 0.112, 0.112, 0.112, 0.112, 0.112, 0.112, 0.112, 0.112, 0.112, 0.112, 0.112, 0.112, 0.112, 0.112, 0.112, 0.112, 0.112, 0.116, 0.12, 0.124, 0.128, 0.132, 0.136, 0.14, 0.144, 0.148, 0.152, 0.156, 0.16, 0.16, 0.16, 0.16, 0.16, 0.16, 0.16, 0.16, 0.16, 0.16, 0.16]",None,None,"['left', 'right']","[0.8404027079814114, 1.372555916022975]","[0.11917900003027171, 0.17182395799318328]",up,1.6378677079919726,None,126.9326157500036,126.93836308299797,127.19001008296618,127.18260429101065,127.18270687496988,127.19001008296618,127.19001008296618,128.18914024997503,128.18914024997503,128.18261037499178,1,1,,,,,,,,,,,,,,,,renee,patients,B,2026-03-24_17h32.25.464,asymmetry_final,2024.2.4,120,2026-03-24 17h36.04.541967 -0400,
16,16,0,4,2,baseline,148,2.9,0.18,1.0,-0.092,flat,curv_flat,0.0,0.0,0.18,pen,input_data/stims/Shape_2.90_1.00.png,input_data/stims/Shape_0.00_2.00.png,input_data/stims/Shape_4.00_2.00.png,-1,1,-1.0,-1.0,1,up,21.76653412403539,None,up,1.0649857909884304,None,None,None,['right'],[0.4782629159744829],[1.1753041250049137],up,1.7396091250120662,None,0,0,0,0,0,16,16,28,128.18914024997503,,,,,,,,,,,,,,,,,128.18348624999635,0.000869042007252574,129.2754022909794,129.27545974997338,129.30840408295626,130.39011420798488,130.38441104098456,130.38473112497013,0.00032604101579636335,131.6767619579914,131.67802333296277,131.7407541249995,131.7407541249995,131.7407541249995,131.7407541249995,131.7407541249995,131.7407541249995,131.7407541249995,133.48949379095575,"[-0.092, -0.092, -0.092, -0.092, -0.092, -0.092, -0.092, -0.092, -0.092, -0.092, -0.092, -0.092, -0.092, -0.092, -0.092, -0.092, -0.092, -0.092, -0.092, -0.092, -0.092, -0.092, -0.092, -0.092, -0.092, -0.092, -0.092, -0.092, -0.092, -0.092, -0.092, -0.092, -0.092, -0.092, -0.092, -0.092, -0.092, -0.092, -0.092, -0.092, -0.092, -0.088, -0.084, -0.08, -0.076, -0.072, -0.068, -0.064, -0.06, -0.056, -0.052, -0.048, -0.044, -0.04, -0.036, -0.032, -0.028, -0.024, -0.02, -0.016, -0.012, -0.008, -0.004, 0.0, 0.004, 0.008, 0.012, 0.016, 0.02, 0.024, 0.028, 0.032, 0.036, 0.04, 0.044, 0.048, 0.052, 0.056, 0.06, 0.064, 0.068, 0.072, 0.076, 0.08, 0.084, 0.088, 0.092, 0.096, 0.1, 0.104, 0.108, 0.112, 0.116, 0.12, 0.124, 0.128, 0.132, 0.136, 0.14, 0.144, 0.148, 0.152, 0.156, 0.16, 0.164, 0.168, 0.172, 0.176, 0.18, 0.184, 0.188, 0.192, 0.196, 0.2, 0.204, 0.208, 0.212, 0.216, 0.22, 0.224, 0.228, 0.232, 0.236, 0.24, 0.244, 0.248, 0.252, 0.256, 0.26, 0.264, 0.268, 0.272, 0.276, 0.28, 0.284, 0.288, 0.292, 0.296, 0.296, 0.296, 0.296, 0.296, 0.296, 0.296, 0.296, 0.296, 0.296, 0.296]",None,None,['right'],[0.4782629159744829],[1.1753041250049137],up,1.7396091250120662,None,133.48985891597113,133.49751745798858,133.7476420829771,133.7382934159832,133.738404624979,133.7476420829771,133.7476420829771,134.7563140830025,134.7563140830025,134.74948545795633,1,1,,,,,,,,,,,,,,,,renee,patients,B,2026-03-24_17h32.25.464,asymmetry_final,2024.2.4,120,2026-03-24 17h36.04.541967 -0400,
17,17,0,4,2,baseline,149,2.9,0.18,1.0,0.296,flat,flat_curv,0.0,0.0,-0.18,pen,input_data/stims/Shape_2.90_1.00.png,input_data/stims/Shape_4.00_2.00.png,input_data/stims/Shape_0.00_2.00.png,-1,-1,1.0,-1.0,1,up,21.76653412403539,None,up,1.0649857909884304,None,None,None,"['right', 'left', 'left']","[0.28085983300115913, 0.4666779990075156, 2.199470708030276]","[0.10716600000159815, 1.7042207919876091, 0.06804474996170029]",up,2.3138654160429724,None,0,0,0,0,0,17,17,29,134.7563140830025,,,,,,,,,,,,,,,,,134.7505037499941,0.0010007080272771418,135.84245670796372,135.8425023749587,135.87532641598955,136.93179491598858,136.92462791595608,136.92496183299227,0.0003553329734131694,138.3669212909881,138.36822754098102,138.43001625000034,138.43001625000034,138.43001625000034,138.43001625000034,138.43001625000034,138.43001625000034,138.43001625000034,140.75067254097667,"[0.296, 0.296, 0.296, 0.296, 0.296, 0.296, 0.296, 0.296, 0.296, 0.296, 0.296, 0.296, 0.296, 0.296, 0.296, 0.296, 0.296, 0.296, 0.296, 0.296, 0.296, 0.296, 0.296, 0.296, 0.296, 0.296, 0.296, 0.3, 0.304, 0.308, 0.312, 0.316, 0.32, 0.324, 0.328, 0.328, 0.328, 0.328, 0.328, 0.328, 0.328, 0.328, 0.328, 0.324, 0.32, 0.316, 0.312, 0.308, 0.304, 0.3, 0.296, 0.292, 0.288, 0.284, 0.28, 0.276, 0.272, 0.268, 0.264, 0.26, 0.256, 0.252, 0.248, 0.244, 0.24, 0.236, 0.232, 0.228, 0.224, 0.22, 0.216, 0.212, 0.208, 0.204, 0.2, 0.196, 0.192, 0.188, 0.184, 0.18, 0.176, 0.172, 0.168, 0.164, 0.16, 0.156, 0.152, 0.148, 0.144, 0.14, 0.136, 0.132, 0.128, 0.124, 0.12, 0.116, 0.112, 0.108, 0.104, 0.1, 0.096, 0.092, 0.088, 0.084, 0.08, 0.076, 0.072, 0.068, 0.064, 0.06, 0.056, 0.052, 0.048, 0.044, 0.04, 0.036, 0.032, 0.028, 0.024, 0.02, 0.016, 0.012, 0.008, 0.004, 0.0, -0.004, -0.008, -0.012, -0.016, -0.02, -0.024, -0.028, -0.032, -0.036, -0.04, -0.044, -0.048, -0.052, -0.056, -0.06, -0.064, -0.068, -0.072, -0.076, -0.08, -0.084, -0.088, -0.092, -0.096, -0.1, -0.104, -0.108, -0.112, -0.116, -0.12, -0.124, -0.128, -0.132, -0.136, -0.14, -0.144, -0.148, -0.152, -0.156, -0.16, -0.164, -0.168, -0.172, -0.176, -0.18, -0.184, -0.188, -0.192, -0.196, -0.2, -0.204, -0.208, -0.212, -0.216, -0.22, -0.224, -0.228, -0.232, -0.236, -0.24, -0.24, -0.24, -0.244, -0.248, -0.252, -0.256, -0.26, -0.264, -0.264, -0.264, -0.264, -0.264]",None,None,"['right', 'left', 'left']","[0.28085983300115913, 0.4666779990075156, 2.199470708030276]","[0.10716600000159815, 1.7042207919876091, 0.06804474996170029]",up,2.3138654160429724,None,140.7511818750063,140.75837454100838,141.0064270409639,140.9995410409756,140.99966191599378,141.0064270409639,141.0064270409639,142.00555608299328,142.00555608299328,141.99937233299715,1,1,,,,,,,,,,,,,,,,renee,patients,B,2026-03-24_17h32.25.464,asymmetry_final,2024.2.4,120,2026-03-24 17h36.04.541967 -0400,
18,18,0,4,2,baseline,158,3.9,0.38,3.0,0.284,flat,curv_flat,0.0,0.0,0.38,pen,input_data/stims/Shape_3.90_3.00.png,input_data/stims/Shape_0.00_2.00.png,input_data/stims/Shape_4.00_2.00.png,-1,1,1.0,1.0,1,up,21.76653412403539,None,up,1.0649857909884304,None,None,None,"['right', 'right']","[0.52879887400195, 0.9007943739998154]","[0.18316058401251212, 0.1399232919793576]",up,1.1355022490024567,None,0,0,0,0,0,18,18,38,142.00555608299328,,,,,,,,,,,,,,,,,142.00024329096777,0.000853832985740155,143.0421879159985,143.04224400001112,143.07783620798727,144.20479891600553,144.19946962496033,144.1998297079699,0.00037545798113569617,145.64176904095802,145.64315162500134,145.70454241597326,145.70454241597326,145.70454241597326,145.70454241597326,145.70454241597326,145.70454241597326,145.70454241597326,146.85306179098552,"[0.284, 0.284, 0.284, 0.284, 0.284, 0.284, 0.284, 0.284, 0.284, 0.284, 0.284, 0.284, 0.284, 0.284, 0.284, 0.284, 0.284, 0.284, 0.284, 0.284, 0.284, 0.284, 0.284, 0.284, 0.284, 0.284, 0.284, 0.284, 0.284, 0.284, 0.284, 0.284, 0.284, 0.284, 0.284, 0.284, 0.284, 0.284, 0.284, 0.284, 0.284, 0.284, 0.284, 0.284, 0.284, 0.284, 0.284, 0.288, 0.292, 0.296, 0.3, 0.304, 0.308, 0.312, 0.316, 0.32, 0.324, 0.328, 0.332, 0.336, 0.336, 0.336, 0.336, 0.336, 0.336, 0.336, 0.336, 0.336, 0.336, 0.336, 0.336, 0.336, 0.336, 0.336, 0.336, 0.336, 0.34, 0.344, 0.348, 0.352, 0.356, 0.36, 0.364, 0.368, 0.372, 0.376, 0.376, 0.376, 0.376, 0.376, 0.376, 0.376, 0.376, 0.376, 0.376, 0.376]",None,None,"['right', 'right']","[0.52879887400195, 0.9007943739998154]","[0.18316058401251212, 0.1399232919793576]",up,1.1355022490024567,None,146.85337500000605,146.86102745798416,147.1155673749745,147.10481541597983,147.1049099160009,147.1155673749745,147.1155673749745,148.11547612497816,148.11547612497816,148.10605149995536,1,1,,,,,,,,,,,,,,,,renee,patients,B,2026-03-24_17h32.25.464,asymmetry_final,2024.2.4,120,2026-03-24 17h36.04.541967 -0400,
19,19,0,4,2,baseline,155,3.5,0.3,1.0,-0.148,flat,flat_curv,0.0,0.0,-0.3,pen,input_data/stims/Shape_3.50_1.00.png,input_data/stims/Shape_4.00_2.00.png,input_data/stims/Shape_0.00_2.00.png,-1,-1,-1.0,-1.0,1,up,21.76653412403539,None,up,1.0649857909884304,None,None,None,"['left', 'right']","[0.42133287503384054, 1.2404525830061175]","[0.5675642909482121, 0.09202679200097919]",up,1.5676399579970166,None,0,0,0,0,0,19,19,35,148.11547612497816,,,,,,,,,,,,,,,,,148.10649662499782,0.0004320000298321247,149.19841045798967,149.19846187497023,149.23298991599586,150.26599033299135,150.25394316599704,150.25419220799813,0.0002517919638194144,151.59615341597237,151.59732912498293,151.65781804098515,151.65781804098515,151.65781804098515,151.65781804098515,151.65781804098515,151.65781804098515,151.65781804098515,153.23076262499671,"[-0.148, -0.148, -0.148, -0.148, -0.148, -0.148, -0.148, -0.148, -0.148, -0.148, -0.148, -0.148, -0.148, -0.148, -0.148, -0.148, -0.148, -0.148, -0.148, -0.148, -0.148, -0.148, -0.148, -0.148, -0.148, -0.148, -0.148, -0.148, -0.148, -0.148, -0.148, -0.148, -0.148, -0.148, -0.148, -0.148, -0.148, -0.148, -0.152, -0.156, -0.16, -0.164, -0.168, -0.172, -0.176, -0.18, -0.184, -0.188, -0.192, -0.196, -0.2, -0.204, -0.208, -0.212, -0.216, -0.22, -0.224, -0.228, -0.232, -0.236, -0.24, -0.244, -0.248, -0.252, -0.256, -0.26, -0.264, -0.268, -0.272, -0.276, -0.28, -0.284, -0.288, -0.292, -0.296, -0.3, -0.304, -0.308, -0.312, -0.316, -0.32, -0.324, -0.324, -0.324, -0.324, -0.324, -0.324, -0.324, -0.324, -0.324, -0.324, -0.324, -0.324, -0.324, -0.324, -0.324, -0.324, -0.324, -0.324, -0.324, -0.324, -0.324, -0.324, -0.324, -0.324, -0.32, -0.316, -0.312, -0.308, -0.304, -0.3, -0.296, -0.296, -0.296, -0.296, -0.296, -0.296, -0.296, -0.296, -0.296, -0.296, -0.296, -0.296, -0.296, -0.296, -0.296, -0.296, -0.296, -0.296, -0.296, -0.296, -0.296, -0.296, -0.296]",None,None,"['left', 'right']","[0.42133287503384054, 1.2404525830061175]","[0.5675642909482121, 0.09202679200097919]",up,1.5676399579970166,None,153.23119320796104,153.23864829097874,153.4906385409995,153.48287954099942,153.4829928749823,153.4906385409995,153.4906385409995,154.50511724996613,154.50511724996613,154.49904862500262,1,1,,,,,,,,,,,,,,,,renee,patients,B,2026-03-24_17h32.25.464,asymmetry_final,2024.2.4,120,2026-03-24 17h36.04.541967 -0400,
20,20,0,4,2,baseline,131,1.1,-0.18,1.0,0.004,curv,flat_curv,0.0,0.0,0.18,rew,input_data/stims/Shape_1.10_1.00.png,input_data/stims/Shape_4.00_2.00.png,input_data/stims/Shape_0.00_2.00.png,1,-1,1.0,-1.0,-1,up,21.76653412403539,None,up,1.0649857909884304,None,None,None,['left'],[0.4629797489615157],[0.3473703340278007],up,0.9096624579979107,None,0,0,0,0,0,20,20,11,154.50511724996613,,,,,,,,,,,,,,,,,154.499900374969,0.0008407089626416564,155.44191449997015,155.4419712079689,155.47655066597508,156.47339745797217,156.4686324999784,156.46889299998293,0.00026904098922386765,157.81084041600116,157.8121041249833,157.877430499997,157.877430499997,157.877430499997,157.877430499997,157.877430499997,157.877430499997,157.877430499997,158.7942062499933,"[0.004, 0.004, 0.004, 0.004, 0.004, 0.004, 0.004, 0.004, 0.004, 0.004, 0.004, 0.004, 0.004, 0.004, 0.004, 0.004, 0.004, 0.004, 0.004, 0.004, 0.004, 0.004, 0.004, 0.004, 0.004, 0.004, 0.004, 0.004, 0.004, 0.004, 0.004, 0.004, 0.004, 0.004, 0.004, 0.004, 0.004, 0.004, 0.0, -0.004, -0.008, -0.012, -0.016, -0.02, -0.024, -0.028, -0.032, -0.036, -0.04, -0.044, -0.048, -0.052, -0.056, -0.06, -0.064, -0.068, -0.072, -0.076, -0.08, -0.084, -0.088, -0.092, -0.096, -0.1, -0.104, -0.108, -0.112, -0.112, -0.112, -0.112, -0.112, -0.112, -0.112, -0.112, -0.112, -0.112]",None,None,['left'],[0.4629797489615157],[0.3473703340278007],up,0.9096624579979107,None,158.79455437499564,158.80135620798683,159.05705241597025,159.04955645796144,159.0496412079665,159.05705241597025,,160.0895675829961,,160.0829955409863,0,-1,159.05705241597025,160.0895675829961,,,,,,,,,,,,,,renee,patients,B,2026-03-24_17h32.25.464,asymmetry_final,2024.2.4,120,2026-03-24 17h36.04.541967 -0400,
21,21,0,4,2,baseline,153,3.3,0.26,1.0,0.136,flat,flat_curv,0.0,0.0,-0.26,pen,input_data/stims/Shape_3.30_1.00.png,input_data/stims/Shape_4.00_2.00.png,input_data/stims/Shape_0.00_2.00.png,-1,-1,1.0,-1.0,1,up,21.76653412403539,None,up,1.0649857909884304,None,None,None,['left'],[0.5087904579704627],[0.9593325830064714],up,1.6235879159648903,None,0,0,0,0,0,21,21,33,160.0895675829961,,,,,,,,,,,,,,,,,160.08380624995334,0.0007914580055512488,161.07580274995416,161.0758555830107,161.1075817910023,162.31599041598383,162.3041172499652,162.3043728749617,0.00026050000451505184,163.64641774998745,163.64771183300763,163.70705574995372,163.70705574995372,163.70705574995372,163.70705574995372,163.70705574995372,163.70705574995372,163.70705574995372,165.34130249998998,"[0.136, 0.136, 0.136, 0.136, 0.136, 0.136, 0.136, 0.136, 0.136, 0.136, 0.136, 0.136, 0.136, 0.136, 0.136, 0.136, 0.136, 0.136, 0.136, 0.136, 0.136, 0.136, 0.136, 0.136, 0.136, 0.136, 0.136, 0.136, 0.136, 0.136, 0.136, 0.136, 0.136, 0.136, 0.136, 0.136, 0.136, 0.136, 0.136, 0.136, 0.136, 0.136, 0.136, 0.136, 0.136, 0.136, 0.136, 0.136, 0.136, 0.136, 0.132, 0.128, 0.124, 0.12, 0.116, 0.112, 0.108, 0.104, 0.1, 0.096, 0.092, 0.088, 0.084, 0.08, 0.076, 0.072, 0.068, 0.064, 0.06, 0.056, 0.052, 0.048, 0.044, 0.04, 0.036, 0.032, 0.028, 0.024, 0.02, 0.016, 0.012, 0.008, 0.004, 0.0, -0.004, -0.008, -0.012, -0.016, -0.02, -0.024, -0.028, -0.032, -0.036, -0.04, -0.044, -0.048, -0.052, -0.056, -0.06, -0.064, -0.068, -0.072, -0.076, -0.08, -0.084, -0.088, -0.092, -0.096, -0.1, -0.104, -0.108, -0.112, -0.116, -0.12, -0.124, -0.128, -0.132, -0.136, -0.14, -0.144, -0.148, -0.152, -0.156, -0.16, -0.164, -0.168, -0.172, -0.176, -0.18, -0.18, -0.18, -0.18, -0.18, -0.18, -0.18, -0.18, -0.18, -0.18, -0.18, -0.18, -0.18, -0.18, -0.18]",None,None,['left'],[0.5087904579704627],[0.9593325830064714],up,1.6235879159648903,None,165.34173633297905,165.36518049996812,165.63953824999044,165.63285133300815,165.63294362497982,165.63953824999044,165.63953824999044,166.64012679096777,166.64012679096777,166.63308574998518,1,1,,,,,,,,,,,,,,,,renee,patients,B,2026-03-24_17h32.25.464,asymmetry_final,2024.2.4,120,2026-03-24 17h36.04.541967 -0400,
22,22,0,4,2,baseline,159,3.9,0.38,3.0,0.04,flat,flat_curv,0.0,0.0,-0.38,pen,input_data/stims/Shape_3.90_3.00.png,input_data/stims/Shape_4.00_2.00.png,input_data/stims/Shape_0.00_2.00.png,-1,-1,1.0,1.0,1,up,21.76653412403539,None,up,1.0649857909884304,None,None,None,"['left', 'left', 'left']","[0.39440791599918157, 1.330291207996197, 2.0228789990069345]","[0.4158755830139853, 0.4280165410018526, 0.15602524997666478]",up,2.2579548740177415,None,0,0,0,0,0,22,22,39,166.64012679096777,,,,,,,,,,,,,,,,,166.63404937495943,0.0009453340317122638,167.67595366598107,167.67600054095965,167.70917808299419,168.73822958295932,168.7329737909604,168.733262499969,0.0002914160140790045,170.07518087496283,170.076378208003,170.13324620795902,170.13324620795902,170.13324620795902,170.13324620795902,170.13324620795902,170.13324620795902,170.13324620795902,172.40136724995682,"[0.04, 0.04, 0.04, 0.04, 0.04, 0.04, 0.04, 0.04, 0.04, 0.04, 0.04, 0.04, 0.04, 0.04, 0.04, 0.04, 0.04, 0.04, 0.04, 0.04, 0.04, 0.04, 0.04, 0.04, 0.04, 0.04, 0.04, 0.04, 0.04, 0.04, 0.04, 0.04, 0.04, 0.04, 0.04, 0.04, 0.04, 0.04, 0.04, 0.036, 0.032, 0.028, 0.024, 0.02, 0.016, 0.012, 0.008, 0.004, 0.0, -0.004, -0.008, -0.012, -0.016, -0.02, -0.024, -0.028, -0.032, -0.036, -0.04, -0.044, -0.048, -0.052, -0.056, -0.06, -0.064, -0.068, -0.072, -0.076, -0.08, -0.084, -0.088, -0.092, -0.096, -0.1, -0.104, -0.108, -0.108, -0.108, -0.108, -0.108, -0.108, -0.108, -0.108, -0.108, -0.108, -0.108, -0.108, -0.108, -0.108, -0.108, -0.108, -0.108, -0.108, -0.108, -0.108, -0.108, -0.108, -0.108, -0.108, -0.108, -0.108, -0.108, -0.108, -0.108, -0.108, -0.108, -0.108, -0.108, -0.108, -0.108, -0.108, -0.108, -0.108, -0.108, -0.108, -0.108, -0.108, -0.108, -0.108, -0.108, -0.108, -0.108, -0.108, -0.108, -0.108, -0.112, -0.116, -0.12, -0.124, -0.128, -0.132, -0.136, -0.14, -0.144, -0.148, -0.152, -0.156, -0.16, -0.164, -0.168, -0.172, -0.176, -0.18, -0.184, -0.188, -0.192, -0.196, -0.2, -0.204, -0.208, -0.212, -0.216, -0.22, -0.224, -0.228, -0.232, -0.236, -0.24, -0.24, -0.24, -0.24, -0.24, -0.24, -0.24, -0.24, -0.24, -0.24, -0.24, -0.24, -0.24, -0.24, -0.24, -0.24, -0.24, -0.24, -0.24, -0.24, -0.24, -0.24, -0.24, -0.24, -0.24, -0.24, -0.244, -0.248, -0.252, -0.256, -0.26, -0.264, -0.268, -0.272, -0.276, -0.28, -0.284, -0.288, -0.292, -0.292, -0.292, -0.292, -0.292, -0.292, -0.292, -0.292]",None,None,"['left', 'left', 'left']","[0.39440791599918157, 1.330291207996197, 2.0228789990069345]","[0.4158755830139853, 0.4280165410018526, 0.15602524997666478]",up,2.2579548740177415,None,172.40186704095686,172.40983570797835,172.65745254099602,172.64984445797745,172.6499754159595,172.65745254099602,172.65745254099602,173.66618724999717,173.66618724999717,173.65565637499094,1,1,,,,,,,,,,,,,,,,renee,patients,B,2026-03-24_17h32.25.464,asymmetry_final,2024.2.4,120,2026-03-24 17h36.04.541967 -0400,
23,23,0,4,2,baseline,133,1.3,-0.14,3.0,-0.144,curv,flat_curv,0.0,0.0,0.14,rew,input_data/stims/Shape_1.30_3.00.png,input_data/stims/Shape_4.00_2.00.png,input_data/stims/Shape_0.00_2.00.png,1,-1,-1.0,1.0,-1,up,21.76653412403539,None,up,1.0649857909884304,None,None,None,['right'],[0.3663151240325533],[0.7034610419650562],up,1.107818999036681,None,0,0,0,0,0,23,23,13,173.66618724999717,,,,,,,,,,,,,,,,,173.6564901249949,0.000816208019386977,174.6984158749692,174.69847529096296,174.73249270796077,175.7820662909653,175.7770281249541,175.77727612497984,0.00025579199427738786,177.06925708299968,177.07055666600354,177.14379712496884,177.14379712496884,177.14379712496884,177.14379712496884,177.14379712496884,177.14379712496884,177.14379712496884,178.2653534580022,"[-0.144, -0.144, -0.144, -0.144, -0.144, -0.144, -0.144, -0.144, -0.144, -0.144, -0.144, -0.144, -0.144, -0.144, -0.144, -0.144, -0.144, -0.144, -0.144, -0.144, -0.144, -0.144, -0.144, -0.144, -0.144, -0.144, -0.144, -0.144, -0.144, -0.144, -0.144, -0.144, -0.144, -0.144, -0.144, -0.144, -0.144, -0.14, -0.136, -0.132, -0.128, -0.124, -0.12, -0.116, -0.112, -0.108, -0.104, -0.1, -0.096, -0.092, -0.088, -0.084, -0.08, -0.076, -0.072, -0.068, -0.064, -0.06, -0.056, -0.052, -0.048, -0.044, -0.04, -0.036, -0.032, -0.028, -0.024, -0.02, -0.016, -0.012, -0.008, -0.004, 0.0, 0.004, 0.008, 0.012, 0.016, 0.02, 0.024, 0.028, 0.032, 0.036, 0.04, 0.044, 0.048, 0.052, 0.056, 0.06, 0.064, 0.068, 0.072, 0.076, 0.08, 0.084, 0.088, 0.088, 0.088, 0.088, 0.088, 0.088]",None,None,['right'],[0.3663151240325533],[0.7034610419650562],up,1.107818999036681,None,178.26565970800584,178.26997662498616,178.53268274996663,178.52224049996585,178.52233679097844,178.53268274996663,,179.53252099995734,,179.52120441599982,1,5,,,178.53268274996663,179.53252099995734,,,,,,,,,,,,renee,patients,B,2026-03-24_17h32.25.464,asymmetry_final,2024.2.4,120,2026-03-24 17h36.04.541967 -0400,
24,24,0,4,2,baseline,152,3.3,0.26,3.0,-0.1,flat,curv_flat,0.0,0.0,0.26,pen,input_data/stims/Shape_3.30_3.00.png,input_data/stims/Shape_0.00_2.00.png,input_data/stims/Shape_4.00_2.00.png,-1,1,-1.0,1.0,1,up,21.76653412403539,None,up,1.0649857909884304,None,None,None,['right'],[0.5675722500309348],[0.9156458749785088],up,1.6540913750068285,None,0,0,0,0,0,24,24,32,179.53252099995734,,,,,,,,,,,,,,,,,179.52205329097342,0.0008341670036315918,180.614008790988,180.61405491596088,180.65020095795626,181.71579433296574,181.70864737499505,181.70895191596355,0.00030399998649954796,183.10099908296252,183.10228433297016,183.16287066595396,183.16287066595396,183.16287066595396,183.16287066595396,183.16287066595396,183.16287066595396,183.16287066595396,184.82032241596607,"[-0.1, -0.1, -0.1, -0.1, -0.1, -0.1, -0.1, -0.1, -0.1, -0.1, -0.1, -0.1, -0.1, -0.1, -0.1, -0.1, -0.1, -0.1, -0.1, -0.1, -0.1, -0.1, -0.1, -0.1, -0.1, -0.1, -0.1, -0.1, -0.1, -0.1, -0.1, -0.1, -0.1, -0.1, -0.1, -0.1, -0.1, -0.1, -0.1, -0.1, -0.1, -0.1, -0.1, -0.1, -0.1, -0.1, -0.1, -0.1, -0.1, -0.1, -0.1, -0.1, -0.1, -0.096, -0.092, -0.088, -0.084, -0.08, -0.076, -0.072, -0.068, -0.064, -0.06, -0.056, -0.052, -0.048, -0.044, -0.04, -0.036, -0.032, -0.028, -0.024, -0.02, -0.016, -0.012, -0.008, -0.004, 0.0, 0.004, 0.008, 0.012, 0.016, 0.02, 0.024, 0.028, 0.032, 0.036, 0.04, 0.044, 0.048, 0.052, 0.056, 0.06, 0.064, 0.068, 0.072, 0.076, 0.08, 0.084, 0.088, 0.092, 0.096, 0.1, 0.104, 0.108, 0.112, 0.116, 0.12, 0.124, 0.128, 0.132, 0.136, 0.14, 0.144, 0.148, 0.152, 0.156, 0.16, 0.164, 0.168, 0.172, 0.176, 0.18, 0.184, 0.188, 0.192, 0.196, 0.2, 0.204, 0.204, 0.204, 0.204, 0.204, 0.204, 0.204, 0.204, 0.204, 0.204, 0.204, 0.204, 0.204, 0.204, 0.204, 0.204]",None,None,['right'],[0.5675722500309348],[0.9156458749785088],up,1.6540913750068285,None,184.8207645000075,184.82785699999658,185.10718200000701,185.10005374997854,185.10015362495324,185.10718200000701,185.10718200000701,186.1151749159908,186.1151749159908,186.10683220799547,1,1,,,,,,,,,,,,,,,,renee,patients,B,2026-03-24_17h32.25.464,asymmetry_final,2024.2.4,120,2026-03-24 17h36.04.541967 -0400,
25,25,0,4,2,baseline,142,2.3,0.06,3.0,-0.028,flat,curv_flat,0.0,0.0,0.06,pen,input_data/stims/Shape_2.30_3.00.png,input_data/stims/Shape_0.00_2.00.png,input_data/stims/Shape_4.00_2.00.png,-1,1,-1.0,1.0,1,up,21.76653412403539,None,up,1.0649857909884304,None,None,None,"['right', 'right', 'right']","[0.4352828330011107, 0.7170546250417829, 0.8910187500296161]","[0.1961190000292845, 0.10395579098258168, 0.0999161250074394]",up,1.1243025000439957,None,0,0,0,0,0,25,25,22,186.1151749159908,,,,,,,,,,,,,,,,,186.10764187498717,0.000791250029578805,186.99966929096263,186.9997245830018,187.0323745830101,188.1318170829909,188.12503266596468,188.1253039999865,0.000280542008113116,189.41722479095915,189.4186207499588,189.4864404159598,189.4864404159598,189.4864404159598,189.4864404159598,189.4864404159598,189.4864404159598,189.4864404159598,190.61582895799074,"[-0.028, -0.028, -0.028, -0.028, -0.028, -0.028, -0.028, -0.028, -0.028, -0.028, -0.028, -0.028, -0.028, -0.028, -0.028, -0.028, -0.028, -0.028, -0.028, -0.028, -0.028, -0.028, -0.028, -0.028, -0.028, -0.028, -0.028, -0.028, -0.028, -0.028, -0.028, -0.028, -0.028, -0.028, -0.028, -0.028, -0.028, -0.028, -0.028, -0.028, -0.028, -0.028, -0.028, -0.028, -0.024, -0.02, -0.016, -0.012, -0.008, -0.004, 0.0, 0.004, 0.008, 0.012, 0.016, 0.02, 0.024, 0.028, 0.032, 0.036, 0.036, 0.036, 0.036, 0.036, 0.036, 0.04, 0.044, 0.048, 0.052, 0.056, 0.06, 0.064, 0.064, 0.064, 0.064, 0.064, 0.064, 0.068, 0.072, 0.076, 0.08, 0.084, 0.088, 0.092, 0.096, 0.096, 0.096, 0.096, 0.096, 0.096, 0.096, 0.096, 0.096, 0.096, 0.096, 0.096, 0.096, 0.096]",None,None,"['right', 'right', 'right']","[0.4352828330011107, 0.7170546250417829, 0.8910187500296161]","[0.1961190000292845, 0.10395579098258168, 0.0999161250074394]",up,1.1243025000439957,None,190.61620270798448,190.62326258298708,190.91590145800728,190.90478320798138,190.90489916596562,190.91590145800728,190.91590145800728,191.92298916599248,191.92298916599248,191.91684787499253,1,1,,,,,,,,,,,,,,,,renee,patients,B,2026-03-24_17h32.25.464,asymmetry_final,2024.2.4,120,2026-03-24 17h36.04.541967 -0400,
26,26,0,4,2,baseline,125,0.5,-0.3,1.0,0.016,curv,flat_curv,0.0,0.0,0.3,rew,input_data/stims/Shape_0.50_1.00.png,input_data/stims/Shape_4.00_2.00.png,input_data/stims/Shape_0.00_2.00.png,1,-1,1.0,-1.0,-1,up,21.76653412403539,None,up,1.0649857909884304,None,None,None,"['left', 'right', 'right', 'right', 'right', 'right', 'right', 'right']","[0.33590683300280944, 0.5774569169734605, 0.7829682499868795, 0.9434597080107778, 1.075107874989044, 1.214947416970972, 1.3626819999772124, 1.52075824997155]","[0.17915966699365526, 0.13996945798862725, 0.07189700001617894, 0.05613304197322577, 0.0599548330064863, 0.06410929100820795, 0.05993329198099673, 0.07193000003462657]",up,1.816284291970078,None,0,0,0,0,0,26,26,5,191.92298916599248,,,,,,,,,,,,,,,,,191.91761995799607,0.0007600829703733325,192.9594913329929,192.95953633298632,192.99311333301011,194.09933316597017,194.07707558298716,194.0773578750086,0.0002939170226454735,195.4692999579711,195.47060850000707,195.5319642079994,195.5319642079994,195.5319642079994,195.5319642079994,195.5319642079994,195.5319642079994,195.5319642079994,197.3534280830063,"[0.016, 0.016, 0.016, 0.016, 0.016, 0.016, 0.016, 0.016, 0.016, 0.016, 0.016, 0.016, 0.016, 0.016, 0.016, 0.016, 0.016, 0.016, 0.016, 0.016, 0.016, 0.016, 0.016, 0.016, 0.016, 0.016, 0.016, 0.016, 0.016, 0.016, 0.016, 0.016, 0.012, 0.008, 0.004, 0.0, -0.004, -0.008, -0.012, -0.016, -0.02, -0.024, -0.028, -0.028, -0.028, -0.028, -0.028, -0.024, -0.02, -0.016, -0.012, -0.008, -0.004, 0.0, 0.004, 0.008, 0.008, 0.008, 0.008, 0.012, 0.016, 0.02, 0.024, 0.028, 0.032, 0.036, 0.036, 0.036, 0.036, 0.036, 0.036, 0.036, 0.036, 0.036, 0.036, 0.04, 0.044, 0.048, 0.052, 0.056, 0.056, 0.056, 0.056, 0.056, 0.056, 0.056, 0.056, 0.056, 0.06, 0.064, 0.068, 0.072, 0.076, 0.08, 0.08, 0.08, 0.08, 0.08, 0.08, 0.08, 0.084, 0.088, 0.092, 0.096, 0.1, 0.1, 0.1, 0.1, 0.1, 0.1, 0.1, 0.1, 0.1, 0.104, 0.108, 0.112, 0.116, 0.12, 0.12, 0.12, 0.12, 0.12, 0.12, 0.12, 0.12, 0.12, 0.12, 0.12, 0.124, 0.128, 0.132, 0.136, 0.14, 0.14, 0.14, 0.14, 0.14, 0.14, 0.14, 0.14, 0.14, 0.14, 0.14, 0.14, 0.14, 0.14, 0.14, 0.14, 0.14, 0.14, 0.14, 0.14, 0.14, 0.14, 0.14]",None,None,"['left', 'right', 'right', 'right', 'right', 'right', 'right', 'right']","[0.33590683300280944, 0.5774569169734605, 0.7829682499868795, 0.9434597080107778, 1.075107874989044, 1.214947416970972, 1.3626819999772124, 1.52075824997155]","[0.17915966699365526, 0.13996945798862725, 0.07189700001617894, 0.05613304197322577, 0.0599548330064863, 0.06410929100820795, 0.05993329198099673, 0.07193000003462657]",up,1.816284291970078,None,197.35376149998046,197.36032724997494,197.6162322500022,197.60512404097244,197.6052356250002,197.6162322500022,,198.61598495795624,,198.60644512495492,1,5,,,197.6162322500022,198.61598495795624,,,,,,,,,,,,renee,patients,B,2026-03-24_17h32.25.464,asymmetry_final,2024.2.4,120,2026-03-24 17h36.04.541967 -0400,
27,27,0,4,2,baseline,122,0.3,-0.34,1.0,-0.096,curv,curv_flat,0.0,0.0,-0.34,rew,input_data/stims/Shape_0.30_1.00.png,input_data/stims/Shape_0.00_2.00.png,input_data/stims/Shape_4.00_2.00.png,1,1,-1.0,-1.0,-1,up,21.76653412403539,None,up,1.0649857909884304,None,None,None,"['left', 'left']","[0.592720166023355, 0.9179047910147347]","[0.10718399996403605, 0.11191729200072587]",up,1.1847273330204189,None,0,0,0,0,0,27,27,2,198.61598495795624,,,,,,,,,,,,,,,,,198.607288915955,0.0008169579668901861,199.5492317909957,199.54929108300712,199.5829877500073,200.73305583297042,200.72057008300908,200.7208100410062,0.00024791702162474394,202.06277054100065,202.06407916598255,202.12511766597163,202.12511766597163,202.12511766597163,202.12511766597163,202.12511766597163,202.12511766597163,202.12511766597163,203.32128941599512,"[-0.096, -0.096, -0.096, -0.096, -0.096, -0.096, -0.096, -0.096, -0.096, -0.096, -0.096, -0.096, -0.096, -0.096, -0.096, -0.096, -0.096, -0.096, -0.096, -0.096, -0.096, -0.096, -0.096, -0.096, -0.096, -0.096, -0.096, -0.096, -0.096, -0.096, -0.096, -0.096, -0.096, -0.096, -0.096, -0.096, -0.096, -0.096, -0.096, -0.096, -0.096, -0.096, -0.096, -0.096, -0.096, -0.096, -0.096, -0.096, -0.096, -0.096, -0.096, -0.096, -0.096, -0.096, -0.096, -0.1, -0.104, -0.108, -0.112, -0.116, -0.12, -0.124, -0.124, -0.124, -0.124, -0.124, -0.124, -0.124, -0.124, -0.124, -0.124, -0.124, -0.124, -0.124, -0.124, -0.124, -0.124, -0.124, -0.124, -0.124, -0.124, -0.124, -0.124, -0.128, -0.132, -0.136, -0.14, -0.144, -0.148, -0.152, -0.156, -0.156, -0.156, -0.156, -0.156, -0.156, -0.156, -0.156, -0.156, -0.156, -0.156, -0.156, -0.156, -0.156, -0.156, -0.156, -0.156]",None,None,"['left', 'left']","[0.592720166023355, 0.9179047910147347]","[0.10718399996403605, 0.11191729200072587]",up,1.1847273330204189,None,203.32167866599048,203.32869729097,203.583236165985,203.57211887498852,203.57222416595323,203.583236165985,,204.58268554095412,,204.57328899996355,1,5,,,203.583236165985,204.58268554095412,,,,,,,,,,,,renee,patients,B,2026-03-24_17h32.25.464,asymmetry_final,2024.2.4,120,2026-03-24 17h36.04.541967 -0400,
28,28,0,4,2,baseline,138,1.9,-0.02,1.0,0.056,curv,curv_flat,0.0,0.0,-0.02,rew,input_data/stims/Shape_1.90_1.00.png,input_data/stims/Shape_0.00_2.00.png,input_data/stims/Shape_4.00_2.00.png,1,1,1.0,-1.0,-1,up,21.76653412403539,None,up,1.0649857909884304,None,None,None,"['right', 'right']","[0.5187735830550082, 0.9901024580467492]","[0.12730587495025247, 0.14001741696847603]",up,1.1876024160301313,None,0,0,0,0,0,28,28,18,204.58268554095412,,,,,,,,,,,,,,,,,204.5742179999943,0.0009136669686995447,205.56621733296197,205.56626950000646,205.60297754098428,206.76684533298248,206.75012049998622,206.75041254097596,0.00029858300695195794,208.2423822080018,208.24370020796778,208.30435312498594,208.30435312498594,208.30435312498594,208.30435312498594,208.30435312498594,208.30435312498594,208.30435312498594,209.5034448329825,"[0.056, 0.056, 0.056, 0.056, 0.056, 0.056, 0.056, 0.056, 0.056, 0.056, 0.056, 0.056, 0.056, 0.056, 0.056, 0.056, 0.056, 0.056, 0.056, 0.056, 0.056, 0.056, 0.056, 0.056, 0.056, 0.056, 0.056, 0.056, 0.056, 0.056, 0.056, 0.056, 0.056, 0.056, 0.056, 0.056, 0.056, 0.056, 0.056, 0.056, 0.056, 0.056, 0.056, 0.056, 0.056, 0.056, 0.056, 0.06, 0.064, 0.068, 0.072, 0.076, 0.08, 0.084, 0.088, 0.092, 0.096, 0.1, 0.1, 0.1, 0.1, 0.1, 0.1, 0.1, 0.1, 0.1, 0.1, 0.1, 0.1, 0.1, 0.1, 0.1, 0.1, 0.1, 0.1, 0.1, 0.1, 0.1, 0.1, 0.1, 0.1, 0.1, 0.1, 0.1, 0.1, 0.104, 0.108, 0.112, 0.116, 0.12, 0.124, 0.128, 0.128, 0.128, 0.128, 0.128, 0.128]",None,None,"['right', 'right']","[0.5187735830550082, 0.9901024580467492]","[0.12730587495025247, 0.14001741696847603]",up,1.1876024160301313,None,209.50392795796506,209.512006999983,209.76650587498443,209.75554920797003,209.75564920797478,209.76650587498443,,210.77365037496202,,210.7672127079568,0,-1,209.76650587498443,210.77365037496202,,,,,,,,,,,,,,renee,patients,B,2026-03-24_17h32.25.464,asymmetry_final,2024.2.4,120,2026-03-24 17h36.04.541967 -0400,
29,29,0,4,2,baseline,156,3.7,0.34,3.0,-0.164,flat,curv_flat,0.0,0.0,0.34,pen,input_data/stims/Shape_3.70_3.00.png,input_data/stims/Shape_0.00_2.00.png,input_data/stims/Shape_4.00_2.00.png,-1,1,-1.0,1.0,1,up,21.76653412403539,None,up,1.0649857909884304,None,None,None,['right'],[0.3893325409735553],[1.6714084169943817],up,2.0646800830145366,None,0,0,0,0,0,29,29,36,210.77365037496202,,,,,,,,,,,,,,,,,210.76807258295594,0.0008440829697065055,211.76000570796896,211.76005458296277,211.79185916599818,212.8486611249973,212.84379245800665,212.84405129100196,0.0002650829846970737,214.28607066598488,214.28736299998127,214.34947770799045,214.34947770799045,214.34947770799045,214.34947770799045,214.34947770799045,214.34947770799045,214.34947770799045,216.41788904101122,"[-0.164, -0.164, -0.164, -0.164, -0.164, -0.164, -0.164, -0.164, -0.164, -0.164, -0.164, -0.164, -0.164, -0.164, -0.164, -0.164, -0.164, -0.164, -0.164, -0.164, -0.164, -0.164, -0.164, -0.164, -0.164, -0.164, -0.164, -0.164, -0.164, -0.164, -0.164, -0.164, -0.164, -0.164, -0.164, -0.164, -0.16, -0.156, -0.152, -0.148, -0.144, -0.14, -0.136, -0.132, -0.128, -0.124, -0.12, -0.116, -0.112, -0.108, -0.104, -0.1, -0.096, -0.092, -0.088, -0.084, -0.08, -0.076, -0.072, -0.068, -0.064, -0.06, -0.056, -0.052, -0.048, -0.044, -0.04, -0.036, -0.032, -0.028, -0.024, -0.02, -0.016, -0.012, -0.008, -0.004, 0.0, 0.004, 0.008, 0.012, 0.016, 0.02, 0.024, 0.028, 0.032, 0.036, 0.04, 0.044, 0.048, 0.052, 0.056, 0.06, 0.064, 0.068, 0.072, 0.076, 0.08, 0.084, 0.088, 0.092, 0.096, 0.1, 0.104, 0.108, 0.112, 0.116, 0.12, 0.124, 0.128, 0.132, 0.136, 0.14, 0.144, 0.148, 0.152, 0.156, 0.16, 0.164, 0.168, 0.172, 0.176, 0.18, 0.184, 0.188, 0.192, 0.196, 0.2, 0.204, 0.208, 0.212, 0.216, 0.22, 0.224, 0.228, 0.232, 0.236, 0.24, 0.244, 0.248, 0.252, 0.256, 0.26, 0.264, 0.268, 0.272, 0.276, 0.28, 0.284, 0.288, 0.292, 0.296, 0.3, 0.304, 0.308, 0.312, 0.316, 0.32, 0.324, 0.328, 0.332, 0.336, 0.34, 0.344, 0.348, 0.352, 0.356, 0.36, 0.364, 0.364]",None,None,['right'],[0.3893325409735553],[1.6714084169943817],up,2.0646800830145366,None,216.41818358300952,216.42470854095882,216.67437024996616,216.6670824160101,216.66719545796514,216.67437024996616,216.67437024996616,217.70004433300346,217.70004433300346,217.68831974995555,1,1,,,,,,,,,,,,,,,,renee,patients,B,2026-03-24_17h32.25.464,asymmetry_final,2024.2.4,120,2026-03-24 17h36.04.541967 -0400,
30,30,0,4,2,baseline,132,1.3,-0.14,3.0,-0.068,curv,curv_flat,0.0,0.0,-0.14,rew,input_data/stims/Shape_1.30_3.00.png,input_data/stims/Shape_0.00_2.00.png,input_data/stims/Shape_4.00_2.00.png,1,1,-1.0,1.0,-1,up,21.76653412403539,None,up,1.0649857909884304,None,None,None,"['right', 'left', 'left']","[0.8703649580129422, 1.0812455830164254, 1.2631642909836955]","[0.10344724997412413, 0.10786645795451477, 0.08417470898712054]",up,1.476295750006102,None,0,0,0,0,0,30,30,12,217.70004433300346,,,,,,,,,,,,,,,,,217.68916979100322,0.0008352079894393682,218.58111870801076,218.58117349998793,218.61228483298328,219.64071179099847,219.6353615410044,219.63572570797987,0.00037295802030712366,220.97766808298184,220.97897329099942,221.0454462079797,221.0454462079797,221.0454462079797,221.0454462079797,221.0454462079797,221.0454462079797,221.0454462079797,222.530813957972,"[-0.068, -0.068, -0.068, -0.068, -0.068, -0.068, -0.068, -0.068, -0.068, -0.068, -0.068, -0.068, -0.068, -0.068, -0.068, -0.068, -0.068, -0.068, -0.068, -0.068, -0.068, -0.068, -0.068, -0.068, -0.068, -0.068, -0.068, -0.068, -0.068, -0.068, -0.068, -0.068, -0.068, -0.068, -0.068, -0.068, -0.068, -0.068, -0.068, -0.068, -0.068, -0.068, -0.068, -0.068, -0.068, -0.068, -0.068, -0.068, -0.068, -0.068, -0.068, -0.068, -0.068, -0.068, -0.068, -0.068, -0.068, -0.068, -0.068, -0.068, -0.068, -0.068, -0.068, -0.068, -0.068, -0.068, -0.068, -0.068, -0.068, -0.068, -0.068, -0.068, -0.068, -0.068, -0.068, -0.068, -0.068, -0.068, -0.068, -0.064, -0.06, -0.056, -0.052, -0.048, -0.044, -0.04, -0.036, -0.036, -0.036, -0.036, -0.036, -0.036, -0.036, -0.036, -0.036, -0.04, -0.044, -0.048, -0.052, -0.056, -0.06, -0.064, -0.068, -0.068, -0.068, -0.068, -0.068, -0.072, -0.076, -0.08, -0.084, -0.088, -0.088, -0.088, -0.088, -0.088, -0.088, -0.088, -0.088, -0.088, -0.088, -0.088]",None,None,"['right', 'left', 'left']","[0.8703649580129422, 1.0812455830164254, 1.2631642909836955]","[0.10344724997412413, 0.10786645795451477, 0.08417470898712054]",up,1.476295750006102,None,222.53133437497308,222.5404746249551,222.79033929097932,222.78377033298602,222.7838864160003,222.79033929097932,,223.79071104095783,,223.78379795799265,1,5,,,222.79033929097932,223.79071104095783,,,,,,,,,,,,renee,patients,B,2026-03-24_17h32.25.464,asymmetry_final,2024.2.4,120,2026-03-24 17h36.04.541967 -0400,
31,31,0,4,2,baseline,139,1.9,-0.02,1.0,0.092,curv,flat_curv,0.0,0.0,0.02,rew,input_data/stims/Shape_1.90_1.00.png,input_data/stims/Shape_4.00_2.00.png,input_data/stims/Shape_0.00_2.00.png,1,-1,1.0,-1.0,-1,up,21.76653412403539,None,up,1.0649857909884304,None,None,None,['left'],[0.4661550829769112],[0.5514488749904558],up,1.0789844159735367,None,0,0,0,0,0,31,31,19,223.79071104095783,,,,,,,,,,,,,,,,,223.7848196249688,0.0009992499835789204,224.72675462497864,224.72680395800853,224.75884312496055,225.7563244579942,225.75088983296882,225.751165958005,0.00027487502666190267,227.14314699999522,227.14442070800578,227.20571554097114,227.20571554097114,227.20571554097114,227.20571554097114,227.20571554097114,227.20571554097114,227.20571554097114,228.29547587496927,"[0.092, 0.092, 0.092, 0.092, 0.092, 0.092, 0.092, 0.092, 0.092, 0.092, 0.092, 0.092, 0.092, 0.092, 0.092, 0.092, 0.092, 0.092, 0.092, 0.092, 0.092, 0.092, 0.092, 0.092, 0.092, 0.092, 0.092, 0.092, 0.092, 0.092, 0.092, 0.092, 0.092, 0.092, 0.092, 0.092, 0.092, 0.088, 0.084, 0.08, 0.076, 0.072, 0.068, 0.064, 0.06, 0.056, 0.052, 0.048, 0.044, 0.04, 0.036, 0.032, 0.028, 0.024, 0.02, 0.016, 0.012, 0.008, 0.004, 0.0, -0.004, -0.008, -0.012, -0.016, -0.02, -0.024, -0.028, -0.032, -0.036, -0.04, -0.044, -0.048, -0.052, -0.056, -0.06, -0.064, -0.068, -0.072, -0.076, -0.08, -0.084, -0.088, -0.092, -0.096, -0.1, -0.1, -0.1, -0.1, -0.1, -0.1, -0.1, -0.1]",None,None,['left'],[0.4661550829769112],[0.5514488749904558],up,1.0789844159735367,None,228.29578225000296,228.30304991599405,228.5578575829859,228.5507752499543,228.55088950000936,228.5578575829859,,229.5572590829688,,229.55069383297814,0,-1,228.5578575829859,229.5572590829688,,,,,,,,,,,,,,renee,patients,B,2026-03-24_17h32.25.464,asymmetry_final,2024.2.4,120,2026-03-24 17h36.04.541967 -0400,
32,32,0,4,2,baseline,144,2.5,0.1,3.0,-0.128,flat,curv_flat,0.0,0.0,0.1,pen,input_data/stims/Shape_2.50_3.00.png,input_data/stims/Shape_0.00_2.00.png,input_data/stims/Shape_4.00_2.00.png,-1,1,-1.0,1.0,1,up,21.76653412403539,None,up,1.0649857909884304,None,None,None,"['right', 'right', 'right', 'right', 'right', 'right', 'right']","[0.9323122909991071, 1.295032499008812, 1.4610970829962753, 1.6167953330441378, 1.7855732910102233, 1.9819136660080403, 2.2133392490213737]","[0.06014533300185576, 0.07994991703890264, 0.07604241603985429, 0.07204658299451694, 0.10797337500844151, 0.10402916703606024, 0.10409029200673103]",up,2.447928583016619,None,0,0,0,0,0,32,32,24,229.5572590829688,,,,,,,,,,,,,,,,,229.55172916600714,0.0010066250106319785,230.4437146660057,230.44376870797714,230.4755920409807,231.67321158299455,231.66827087500133,231.66855908295838,0.0002902079722844064,233.11051191599108,233.11176912498195,233.18185449996963,233.18185449996963,233.18185449996963,233.18185449996963,233.18185449996963,233.18185449996963,233.18185449996963,235.6354040830047,"[-0.128, -0.128, -0.128, -0.128, -0.128, -0.128, -0.128, -0.128, -0.128, -0.128, -0.128, -0.128, -0.128, -0.128, -0.128, -0.128, -0.128, -0.128, -0.128, -0.128, -0.128, -0.128, -0.128, -0.128, -0.128, -0.128, -0.128, -0.128, -0.128, -0.128, -0.128, -0.128, -0.128, -0.128, -0.128, -0.128, -0.128, -0.128, -0.128, -0.128, -0.128, -0.128, -0.128, -0.128, -0.128, -0.128, -0.128, -0.128, -0.128, -0.128, -0.128, -0.128, -0.128, -0.128, -0.128, -0.128, -0.128, -0.128, -0.128, -0.128, -0.128, -0.128, -0.128, -0.128, -0.128, -0.128, -0.128, -0.128, -0.128, -0.128, -0.128, -0.128, -0.128, -0.128, -0.128, -0.128, -0.128, -0.128, -0.128, -0.128, -0.128, -0.128, -0.128, -0.128, -0.128, -0.128, -0.124, -0.12, -0.116, -0.112, -0.108, -0.108, -0.108, -0.108, -0.108, -0.108, -0.108, -0.108, -0.108, -0.108, -0.108, -0.108, -0.108, -0.108, -0.108, -0.108, -0.108, -0.108, -0.108, -0.108, -0.108, -0.108, -0.108, -0.108, -0.108, -0.108, -0.108, -0.104, -0.1, -0.096, -0.092, -0.088, -0.088, -0.088, -0.088, -0.088, -0.088, -0.088, -0.088, -0.088, -0.084, -0.08, -0.076, -0.072, -0.068, -0.064, -0.064, -0.064, -0.064, -0.064, -0.064, -0.064, -0.064, -0.064, -0.06, -0.056, -0.052, -0.048, -0.044, -0.04, -0.04, -0.04, -0.04, -0.04, -0.04, -0.04, -0.04, -0.04, -0.04, -0.036, -0.032, -0.028, -0.024, -0.02, -0.016, -0.012, -0.008, -0.004, -0.004, -0.004, -0.004, -0.004, -0.004, -0.004, -0.004, -0.004, -0.004, 0.0, 0.004, 0.008, 0.012, 0.016, 0.02, 0.024, 0.024, 0.024, 0.024, 0.024, 0.024, 0.024, 0.024, 0.024, 0.024, 0.024, 0.028, 0.032, 0.036, 0.04, 0.044, 0.048, 0.048, 0.048, 0.048, 0.048, 0.048, 0.048, 0.048, 0.048, 0.048]",None,None,"['right', 'right', 'right', 'right', 'right', 'right', 'right']","[0.9323122909991071, 1.295032499008812, 1.4610970829962753, 1.6167953330441378, 1.7855732910102233, 1.9819136660080403, 2.2133392490213737]","[0.06014533300185576, 0.07994991703890264, 0.07604241603985429, 0.07204658299451694, 0.10797337500844151, 0.10402916703606024, 0.10409029200673103]",up,2.447928583016619,None,235.6360669999849,235.644497915986,235.91575483296765,235.90650774998358,235.90661683300277,235.91575483296765,235.91575483296765,236.94053208298283,236.94053208298283,236.9344506249763,1,1,,,,,,,,,,,,,,,,renee,patients,B,2026-03-24_17h32.25.464,asymmetry_final,2024.2.4,120,2026-03-24 17h36.04.541967 -0400,
33,33,0,4,2,baseline,120,0.1,-0.38,1.0,-0.252,curv,curv_flat,0.0,0.0,-0.38,rew,input_data/stims/Shape_0.10_1.00.png,input_data/stims/Shape_0.00_2.00.png,input_data/stims/Shape_4.00_2.00.png,1,1,-1.0,-1.0,-1,up,21.76653412403539,None,up,1.0649857909884304,None,None,None,"['left', 'left', 'left']","[0.6967256249627098, 0.8616312500089407, 1.0867147909593768]","[0.05922654102323577, 0.11601999995764345, 0.0719292500289157]",up,1.3255559579702094,None,0,0,0,0,0,33,33,0,236.94053208298283,,,,,,,,,,,,,,,,,236.93532254098682,0.0008601659792475402,237.87727620796068,237.87733545800438,237.91586745798122,239.0990483330097,239.0928721659584,239.09322583297035,0.0003664589603431523,240.5852103329962,240.58657412498724,240.65007199998945,240.65007199998945,240.65007199998945,240.65007199998945,240.65007199998945,240.65007199998945,240.65007199998945,241.98282933299197,"[-0.252, -0.252, -0.252, -0.252, -0.252, -0.252, -0.252, -0.252, -0.252, -0.252, -0.252, -0.252, -0.252, -0.252, -0.252, -0.252, -0.252, -0.252, -0.252, -0.252, -0.252, -0.252, -0.252, -0.252, -0.252, -0.252, -0.252, -0.252, -0.252, -0.252, -0.252, -0.252, -0.252, -0.252, -0.252, -0.252, -0.252, -0.252, -0.252, -0.252, -0.252, -0.252, -0.252, -0.252, -0.252, -0.252, -0.252, -0.252, -0.252, -0.252, -0.252, -0.252, -0.252, -0.252, -0.252, -0.252, -0.252, -0.252, -0.252, -0.252, -0.252, -0.252, -0.256, -0.26, -0.264, -0.268, -0.268, -0.268, -0.268, -0.268, -0.268, -0.268, -0.268, -0.268, -0.268, -0.268, -0.272, -0.276, -0.28, -0.284, -0.288, -0.292, -0.296, -0.3, -0.304, -0.308, -0.308, -0.308, -0.308, -0.308, -0.308, -0.308, -0.308, -0.308, -0.308, -0.308, -0.312, -0.316, -0.32, -0.324, -0.328, -0.328, -0.328, -0.328, -0.328, -0.328, -0.328, -0.328, -0.328, -0.328, -0.328, -0.328, -0.328]",None,None,"['left', 'left', 'left']","[0.6967256249627098, 0.8616312500089407, 1.0867147909593768]","[0.05922654102323577, 0.11601999995764345, 0.0719292500289157]",up,1.3255559579702094,None,241.98335245798808,241.99244812497636,242.24012529099127,242.23397316597402,242.2340685829986,242.24012529099127,,243.2552917499561,,243.24966574995779,1,5,,,242.24012529099127,243.2552917499561,,,,,,,,,,,,renee,patients,B,2026-03-24_17h32.25.464,asymmetry_final,2024.2.4,120,2026-03-24 17h36.04.541967 -0400,
34,34,0,4,2,baseline,121,0.1,-0.38,1.0,-0.004,curv,flat_curv,0.0,0.0,0.38,rew,input_data/stims/Shape_0.10_1.00.png,input_data/stims/Shape_4.00_2.00.png,input_data/stims/Shape_0.00_2.00.png,1,-1,-1.0,-1.0,-1,up,21.76653412403539,None,up,1.0649857909884304,None,None,None,['right'],[0.5129190000006929],[0.9353183749481104],up,1.4800128749920987,None,0,0,0,0,0,34,34,1,243.2552917499561,,,,,,,,,,,,,,,,,243.2505161659792,0.0008393329917453229,244.24248266598443,244.2425248749787,244.2735020829714,245.4391134160105,245.43409649998648,245.43439312500414,0.00030087499180808663,246.87634079100098,246.8776322499616,246.94249083299655,246.94249083299655,246.94249083299655,246.94249083299655,246.94249083299655,246.94249083299655,246.94249083299655,248.43528312497074,"[-0.004, -0.004, -0.004, -0.004, -0.004, -0.004, -0.004, -0.004, -0.004, -0.004, -0.004, -0.004, -0.004, -0.004, -0.004, -0.004, -0.004, -0.004, -0.004, -0.004, -0.004, -0.004, -0.004, -0.004, -0.004, -0.004, -0.004, -0.004, -0.004, -0.004, -0.004, -0.004, -0.004, -0.004, -0.004, -0.004, -0.004, -0.004, -0.004, -0.004, -0.004, -0.004, -0.004, -0.004, -0.004, -0.004, -0.004, 0.0, 0.004, 0.008, 0.012, 0.016, 0.02, 0.024, 0.028, 0.032, 0.036, 0.04, 0.044, 0.048, 0.052, 0.056, 0.06, 0.064, 0.068, 0.072, 0.076, 0.08, 0.084, 0.088, 0.092, 0.096, 0.1, 0.104, 0.108, 0.112, 0.116, 0.12, 0.124, 0.128, 0.132, 0.136, 0.14, 0.144, 0.148, 0.152, 0.156, 0.16, 0.164, 0.168, 0.172, 0.176, 0.18, 0.184, 0.188, 0.192, 0.196, 0.2, 0.204, 0.208, 0.212, 0.216, 0.22, 0.224, 0.228, 0.232, 0.236, 0.24, 0.244, 0.248, 0.252, 0.256, 0.26, 0.264, 0.268, 0.272, 0.276, 0.28, 0.284, 0.288, 0.292, 0.296, 0.296, 0.296, 0.296, 0.296]",None,None,['right'],[0.5129190000006929],[0.9353183749481104],up,1.4800128749920987,None,248.43580679100705,248.44434833299601,248.70681012497516,248.70054833299946,248.70063870796002,248.70681012497516,,249.70705366600305,,249.70077533298172,1,5,,,248.70681012497516,249.70705366600305,,,,,,,,,,,,renee,patients,B,2026-03-24_17h32.25.464,asymmetry_final,2024.2.4,120,2026-03-24 17h36.04.541967 -0400,
35,35,0,4,2,baseline,126,0.7,-0.26,3.0,-0.312,curv,curv_flat,0.0,0.0,-0.26,rew,input_data/stims/Shape_0.70_3.00.png,input_data/stims/Shape_0.00_2.00.png,input_data/stims/Shape_4.00_2.00.png,1,1,-1.0,1.0,-1,up,21.76653412403539,None,up,1.0649857909884304,None,None,None,"['right', 'left', 'left']","[0.7356570410192944, 1.3782733739935793, 1.6170933329849504]","[0.3360852499608882, 0.10003212501760572, 0.10804862499935552]",up,1.8775584989925846,None,0,0,0,0,0,35,35,6,249.70705366600305,,,,,,,,,,,,,,,,,249.70161812496372,0.0008273330167867243,250.6435358329909,250.6435849579866,250.67898583295755,251.76667591597652,251.75954383297358,251.7598539160099,0.0003151660203002393,253.10185887495754,253.10316166596022,253.16295495798113,253.16295495798113,253.16295495798113,253.16295495798113,253.16295495798113,253.16295495798113,253.16295495798113,255.04890749999322,"[-0.312, -0.312, -0.312, -0.312, -0.312, -0.312, -0.312, -0.312, -0.312, -0.312, -0.312, -0.312, -0.312, -0.312, -0.312, -0.312, -0.312, -0.312, -0.312, -0.312, -0.312, -0.312, -0.312, -0.312, -0.312, -0.312, -0.312, -0.312, -0.312, -0.312, -0.312, -0.312, -0.312, -0.312, -0.312, -0.312, -0.312, -0.312, -0.312, -0.312, -0.312, -0.312, -0.312, -0.312, -0.312, -0.312, -0.312, -0.312, -0.312, -0.312, -0.312, -0.312, -0.312, -0.312, -0.312, -0.312, -0.312, -0.312, -0.312, -0.312, -0.312, -0.312, -0.312, -0.312, -0.312, -0.312, -0.312, -0.312, -0.312, -0.312, -0.312, -0.312, -0.312, -0.308, -0.304, -0.3, -0.296, -0.292, -0.288, -0.284, -0.28, -0.276, -0.272, -0.268, -0.264, -0.26, -0.256, -0.252, -0.248, -0.244, -0.24, -0.236, -0.232, -0.228, -0.224, -0.22, -0.216, -0.212, -0.208, -0.204, -0.2, -0.196, -0.192, -0.192, -0.192, -0.192, -0.192, -0.192, -0.192, -0.192, -0.192, -0.192, -0.192, -0.192, -0.192, -0.192, -0.192, -0.192, -0.192, -0.192, -0.192, -0.192, -0.192, -0.192, -0.192, -0.192, -0.192, -0.192, -0.192, -0.192, -0.192, -0.192, -0.196, -0.2, -0.204, -0.208, -0.212, -0.216, -0.22, -0.224, -0.224, -0.224, -0.224, -0.224, -0.224, -0.224, -0.224, -0.224, -0.224, -0.224, -0.224, -0.228, -0.232, -0.236, -0.24, -0.244, -0.248, -0.252, -0.256, -0.256, -0.256, -0.256, -0.256, -0.256, -0.256, -0.256, -0.256, -0.256, -0.256, -0.256, -0.256, -0.256, -0.256, -0.256]",None,None,"['right', 'left', 'left']","[0.7356570410192944, 1.3782733739935793, 1.6170933329849504]","[0.3360852499608882, 0.10003212501760572, 0.10804862499935552]",up,1.8775584989925846,None,255.049239749962,255.0563037499669,255.3167774999747,255.30641625000862,255.3065327499644,255.3167774999747,,256.31716704100836,,256.30602112499764,1,5,,,255.3167774999747,256.31716704100836,,,,,,,,,,,,renee,patients,B,2026-03-24_17h32.25.464,asymmetry_final,2024.2.4,120,2026-03-24 17h36.04.541967 -0400,
36,36,0,4,2,baseline,137,1.7,-0.06,1.0,0.296,curv,flat_curv,0.0,0.0,0.06,rew,input_data/stims/Shape_1.70_1.00.png,input_data/stims/Shape_4.00_2.00.png,input_data/stims/Shape_0.00_2.00.png,1,-1,1.0,-1.0,-1,up,21.76653412403539,None,up,1.0649857909884304,None,None,None,"['left', 'left']","[0.49049037403892726, 2.330108624009881]","[1.4634331669658422, 0.20400141697609797]",up,2.5910029989900067,None,0,0,0,0,0,36,36,17,256.31716704100836,,,,,,,,,,,,,,,,,256.30688629095675,0.0008565420284867287,257.2488778329571,257.2489187910105,257.27954945800593,258.3860983749619,258.3786594159901,258.37900749995606,0.0003472910029813647,259.7709719580016,259.77253633301007,259.83633525000187,259.83633525000187,259.83633525000187,259.83633525000187,259.83633525000187,259.83633525000187,259.83633525000187,262.4417269999976,"[0.296, 0.296, 0.296, 0.296, 0.296, 0.296, 0.296, 0.296, 0.296, 0.296, 0.296, 0.296, 0.296, 0.296, 0.296, 0.296, 0.296, 0.296, 0.296, 0.296, 0.296, 0.296, 0.296, 0.296, 0.296, 0.296, 0.296, 0.296, 0.296, 0.296, 0.296, 0.296, 0.296, 0.296, 0.296, 0.296, 0.296, 0.296, 0.296, 0.296, 0.296, 0.296, 0.296, 0.296, 0.292, 0.288, 0.284, 0.28, 0.276, 0.272, 0.268, 0.264, 0.26, 0.256, 0.252, 0.248, 0.244, 0.24, 0.236, 0.232, 0.228, 0.224, 0.22, 0.216, 0.212, 0.208, 0.204, 0.2, 0.196, 0.192, 0.188, 0.184, 0.18, 0.176, 0.172, 0.168, 0.164, 0.16, 0.156, 0.152, 0.148, 0.144, 0.14, 0.136, 0.132, 0.128, 0.124, 0.12, 0.116, 0.112, 0.108, 0.104, 0.1, 0.096, 0.092, 0.088, 0.084, 0.08, 0.076, 0.072, 0.068, 0.064, 0.06, 0.056, 0.052, 0.048, 0.044, 0.04, 0.036, 0.032, 0.028, 0.024, 0.02, 0.016, 0.012, 0.008, 0.004, 0.0, -0.004, -0.008, -0.012, -0.016, -0.02, -0.024, -0.028, -0.032, -0.036, -0.04, -0.044, -0.048, -0.052, -0.056, -0.06, -0.064, -0.068, -0.072, -0.076, -0.08, -0.084, -0.088, -0.092, -0.096, -0.1, -0.104, -0.108, -0.112, -0.116, -0.12, -0.124, -0.128, -0.132, -0.136, -0.14, -0.144, -0.148, -0.148, -0.148, -0.148, -0.148, -0.148, -0.148, -0.148, -0.148, -0.148, -0.148, -0.148, -0.148, -0.148, -0.148, -0.148, -0.148, -0.148, -0.148, -0.148, -0.148, -0.148, -0.148, -0.148, -0.148, -0.148, -0.148, -0.148, -0.148, -0.148, -0.148, -0.148, -0.148, -0.148, -0.148, -0.148, -0.148, -0.152, -0.156, -0.16, -0.164, -0.168, -0.172, -0.176, -0.18, -0.184, -0.188, -0.192, -0.196, -0.2, -0.204, -0.208, -0.212, -0.212, -0.212, -0.212, -0.212, -0.212, -0.212]",None,None,"['left', 'left']","[0.49049037403892726, 2.330108624009881]","[1.4634331669658422, 0.20400141697609797]",up,2.5910029989900067,None,262.44222045800416,262.4492704999866,262.7004830829683,262.68889904097887,262.6890006249887,262.7004830829683,,263.7004231659812,,263.6904072079924,0,-1,262.7004830829683,263.7004231659812,,,,,,,,,,,,,,renee,patients,B,2026-03-24_17h32.25.464,asymmetry_final,2024.2.4,120,2026-03-24 17h36.04.541967 -0400,
37,37,0,4,2,baseline,135,1.5,-0.1,1.0,0.288,curv,flat_curv,0.0,0.0,0.1,rew,input_data/stims/Shape_1.50_1.00.png,input_data/stims/Shape_4.00_2.00.png,input_data/stims/Shape_0.00_2.00.png,1,-1,1.0,-1.0,-1,up,21.76653412403539,None,up,1.0649857909884304,None,None,None,['left'],[0.44123266596579924],[1.163351875031367],up,1.6815476659685373,None,0,0,0,0,0,37,37,15,263.7004231659812,,,,,,,,,,,,,,,,,263.69100620795507,0.0005864159902557731,264.78290216595633,264.78297495795414,264.8165362079744,265.91760833299486,265.9014739159611,265.9017260829569,0.00026283302577212453,267.39360874996055,267.395074540982,267.45811491599306,267.45811491599306,267.45811491599306,267.45811491599306,267.45811491599306,267.45811491599306,267.45811491599306,269.15123887499794,"[0.288, 0.288, 0.288, 0.288, 0.288, 0.288, 0.288, 0.288, 0.288, 0.288, 0.288, 0.288, 0.288, 0.288, 0.288, 0.288, 0.288, 0.288, 0.288, 0.288, 0.288, 0.288, 0.288, 0.288, 0.288, 0.288, 0.288, 0.288, 0.288, 0.288, 0.288, 0.288, 0.288, 0.288, 0.288, 0.288, 0.288, 0.288, 0.288, 0.288, 0.288, 0.288, 0.284, 0.28, 0.276, 0.272, 0.268, 0.264, 0.26, 0.256, 0.252, 0.248, 0.244, 0.24, 0.236, 0.232, 0.228, 0.224, 0.22, 0.216, 0.212, 0.208, 0.204, 0.2, 0.196, 0.192, 0.188, 0.184, 0.18, 0.176, 0.172, 0.168, 0.164, 0.16, 0.156, 0.152, 0.148, 0.144, 0.14, 0.136, 0.132, 0.128, 0.124, 0.12, 0.116, 0.112, 0.108, 0.104, 0.1, 0.096, 0.092, 0.088, 0.084, 0.08, 0.076, 0.072, 0.068, 0.064, 0.06, 0.056, 0.052, 0.048, 0.044, 0.04, 0.036, 0.032, 0.028, 0.024, 0.02, 0.016, 0.012, 0.008, 0.004, 0.0, -0.004, -0.008, -0.012, -0.016, -0.02, -0.024, -0.028, -0.032, -0.036, -0.04, -0.044, -0.048, -0.052, -0.056, -0.06, -0.064, -0.068, -0.072, -0.076, -0.08, -0.08, -0.08, -0.08, -0.08, -0.08, -0.08, -0.08, -0.08]",None,None,['left'],[0.44123266596579924],[1.163351875031367],up,1.6815476659685373,None,269.15160220797407,269.1586909159669,269.4076878330088,269.40107404097216,269.40116083296016,269.4076878330088,,270.46694020798896,,270.45634549995884,0,-1,269.4076878330088,270.46694020798896,,,,,,,,,,,,,,renee,patients,B,2026-03-24_17h32.25.464,asymmetry_final,2024.2.4,120,2026-03-24 17h36.04.541967 -0400,
38,38,0,4,2,baseline,145,2.5,0.1,1.0,0.244,flat,flat_curv,0.0,0.0,-0.1,pen,input_data/stims/Shape_2.50_1.00.png,input_data/stims/Shape_4.00_2.00.png,input_data/stims/Shape_0.00_2.00.png,-1,-1,1.0,-1.0,1,up,21.76653412403539,None,up,1.0649857909884304,None,None,None,"['left', 'left', 'left']","[0.6518445410183631, 1.289733082987368, 1.4912111660232767]","[0.447375874966383, 0.10792316601146013, 0.11184599995613098]",up,1.7234489159891382,None,0,0,0,0,0,38,38,25,270.46694020798896,,,,,,,,,,,,,,,,,270.4572329999646,0.0008720419718883932,271.34919670800446,271.3492525409674,271.38139716599835,272.4734233749914,272.4679690829944,272.46819391596364,0.00023454200709238648,273.81018662499264,273.81151137501,273.87350220797816,273.87350220797816,273.87350220797816,273.87350220797816,273.87350220797816,273.87350220797816,273.87350220797816,275.6013192079845,"[0.244, 0.244, 0.244, 0.244, 0.244, 0.244, 0.244, 0.244, 0.244, 0.244, 0.244, 0.244, 0.244, 0.244, 0.244, 0.244, 0.244, 0.244, 0.244, 0.244, 0.244, 0.244, 0.244, 0.244, 0.244, 0.244, 0.244, 0.244, 0.244, 0.244, 0.244, 0.244, 0.244, 0.244, 0.244, 0.244, 0.244, 0.244, 0.244, 0.244, 0.244, 0.244, 0.244, 0.244, 0.244, 0.244, 0.244, 0.244, 0.244, 0.244, 0.244, 0.244, 0.244, 0.244, 0.244, 0.244, 0.244, 0.244, 0.244, 0.244, 0.24, 0.236, 0.232, 0.228, 0.224, 0.22, 0.216, 0.212, 0.208, 0.204, 0.2, 0.196, 0.192, 0.188, 0.184, 0.18, 0.176, 0.172, 0.168, 0.164, 0.16, 0.156, 0.152, 0.148, 0.144, 0.14, 0.136, 0.132, 0.128, 0.124, 0.12, 0.116, 0.112, 0.108, 0.104, 0.104, 0.104, 0.104, 0.104, 0.104, 0.104, 0.104, 0.104, 0.104, 0.104, 0.104, 0.104, 0.104, 0.104, 0.104, 0.104, 0.104, 0.104, 0.1, 0.096, 0.092, 0.088, 0.084, 0.08, 0.076, 0.072, 0.072, 0.072, 0.072, 0.072, 0.072, 0.072, 0.072, 0.072, 0.068, 0.064, 0.06, 0.056, 0.052, 0.048, 0.044, 0.04, 0.036, 0.036, 0.036, 0.036, 0.036, 0.036, 0.036, 0.036, 0.036, 0.036, 0.036, 0.036, 0.036, 0.036]",None,None,"['left', 'left', 'left']","[0.6518445410183631, 1.289733082987368, 1.4912111660232767]","[0.447375874966383, 0.10792316601146013, 0.11184599995613098]",up,1.7234489159891382,None,275.60169295797823,275.60845566599164,275.8603263749974,275.8511300829705,275.8512597079971,275.8603263749974,,276.8674032499548,,276.85127291595563,0,-5,,,,,275.8603263749974,276.8674032499548,,,,,,,,,,renee,patients,B,2026-03-24_17h32.25.464,asymmetry_final,2024.2.4,120,2026-03-24 17h36.04.541967 -0400,
39,39,0,4,2,baseline,134,1.5,-0.1,3.0,-0.152,curv,curv_flat,0.0,0.0,-0.1,rew,input_data/stims/Shape_1.50_3.00.png,input_data/stims/Shape_0.00_2.00.png,input_data/stims/Shape_4.00_2.00.png,1,1,-1.0,1.0,-1,up,21.76653412403539,None,up,1.0649857909884304,None,None,None,"['right', 'right', 'right', 'right']","[0.6682766249869019, 1.3197189159691334, 1.5201970409834757, 1.7095180829637684]","[0.35131716600153595, 0.11595162498997524, 0.11214508401462808, 0.11202470801072195]",up,1.9409024159540422,None,0,0,0,0,0,39,39,14,276.8674032499548,,,,,,,,,,,,,,,,,276.85212254099315,0.000834333011880517,277.8441446250072,277.8441967079998,277.87599291600054,279.0198089159676,278.9951791249914,278.9954099999741,0.00023858301574364305,280.3374103750102,280.33871420798823,280.401737749984,280.401737749984,280.401737749984,280.401737749984,280.401737749984,280.401737749984,280.401737749984,282.3476093749632,"[-0.152, -0.152, -0.152, -0.152, -0.152, -0.152, -0.152, -0.152, -0.152, -0.152, -0.152, -0.152, -0.152, -0.152, -0.152, -0.152, -0.152, -0.152, -0.152, -0.152, -0.152, -0.152, -0.152, -0.152, -0.152, -0.152, -0.152, -0.152, -0.152, -0.152, -0.152, -0.152, -0.152, -0.152, -0.152, -0.152, -0.152, -0.152, -0.152, -0.152, -0.152, -0.152, -0.152, -0.152, -0.152, -0.152, -0.152, -0.152, -0.152, -0.152, -0.152, -0.152, -0.152, -0.152, -0.152, -0.152, -0.152, -0.152, -0.152, -0.152, -0.152, -0.152, -0.148, -0.144, -0.14, -0.136, -0.132, -0.128, -0.124, -0.12, -0.116, -0.112, -0.108, -0.104, -0.1, -0.096, -0.092, -0.088, -0.084, -0.08, -0.076, -0.072, -0.068, -0.064, -0.06, -0.056, -0.052, -0.048, -0.044, -0.04, -0.036, -0.036, -0.036, -0.036, -0.036, -0.036, -0.036, -0.036, -0.036, -0.036, -0.036, -0.036, -0.036, -0.036, -0.036, -0.036, -0.036, -0.036, -0.036, -0.036, -0.036, -0.036, -0.036, -0.036, -0.036, -0.036, -0.036, -0.032, -0.028, -0.024, -0.02, -0.016, -0.012, -0.008, -0.008, -0.008, -0.008, -0.008, -0.008, -0.008, -0.004, 0.0, 0.004, 0.008, 0.012, 0.016, 0.02, 0.02, 0.02, 0.02, 0.02, 0.02, 0.02, 0.02, 0.024, 0.028, 0.032, 0.036, 0.04, 0.044, 0.048, 0.052, 0.056, 0.056, 0.056, 0.056, 0.056, 0.056, 0.056, 0.056, 0.056, 0.056, 0.056, 0.056, 0.056, 0.056]",None,None,"['right', 'right', 'right', 'right']","[0.6682766249869019, 1.3197189159691334, 1.5201970409834757, 1.7095180829637684]","[0.35131716600153595, 0.11595162498997524, 0.11214508401462808, 0.11202470801072195]",up,1.9409024159540422,None,282.34798529098043,282.3543872080045,282.6083977079834,282.60131620796164,282.601417207974,282.6083977079834,,283.659053499985,,283.6012065829709,0,-1,282.6083977079834,283.659053499985,,,,,,,,,,,,,,renee,patients,B,2026-03-24_17h32.25.464,asymmetry_final,2024.2.4,120,2026-03-24 17h36.04.541967 -0400,
0,0,0,5,2,curv_comp,184,1.5,-0.1,1.0,-0.328,flat,curv_flat,-0.2,-0.2,-0.1,pen,input_data/stims/Shape_1.50_1.00.png,input_data/stims/Shape_0.00_2.00.png,input_data/stims/Shape_4.00_2.00.png,-1,1,-1.0,-1.0,1,None,,,up,0.8008089579525404,None,None,None,['right'],[0.6609128749696538],[None],up,1.8083623749553226,None,1,0,1,0,0,0,0,24,347.83026087499456,,346.93662641599076,,,,346.9367019580095,None,,,346.94304079096764,346.9519393329974,346.9519393329974,347.75804674997926,up,0.8008089579525404,None,347.8209229159984,0.0628588330000639,348.9128174579819,348.91286579100415,348.9431122079841,350.09118108300027,350.0854347499553,350.0857932079816,0.0003671669983305037,351.4778289999813,351.47909091599286,351.54107670800295,351.54107670800295,351.54107670800295,351.54107670800295,351.54107670800295,351.54107670800295,351.54107670800295,353.35420095798327,"[-0.328, -0.328, -0.328, -0.328, -0.328, -0.328, -0.328, -0.328, -0.328, -0.328, -0.328, -0.328, -0.328, -0.328, -0.328, -0.328, -0.328, -0.328, -0.328, -0.328, -0.328, -0.328, -0.328, -0.328, -0.328, -0.328, -0.328, -0.328, -0.328, -0.328, -0.328, -0.328, -0.328, -0.328, -0.328, -0.328, -0.328, -0.328, -0.328, -0.328, -0.328, -0.328, -0.328, -0.328, -0.328, -0.328, -0.328, -0.328, -0.328, -0.328, -0.328, -0.328, -0.328, -0.328, -0.328, -0.328, -0.328, -0.324, -0.32, -0.316, -0.312, -0.308, -0.304, -0.3, -0.296, -0.292, -0.288, -0.284, -0.28, -0.276, -0.272, -0.268, -0.264, -0.26, -0.256, -0.252, -0.248, -0.244, -0.24, -0.236, -0.232, -0.228, -0.224, -0.22, -0.216, -0.212, -0.208, -0.204, -0.2, -0.196, -0.192, -0.188, -0.184, -0.18, -0.176, -0.172, -0.168, -0.164, -0.16, -0.156, -0.152, -0.148, -0.144, -0.14, -0.136, -0.132, -0.128, -0.124, -0.12, -0.116, -0.112, -0.108, -0.104, -0.1, -0.096, -0.092, -0.088, -0.084, -0.08, -0.076, -0.072, -0.068, -0.064, -0.06, -0.056, -0.052, -0.048, -0.044, -0.04, -0.036, -0.032, -0.028, -0.024, -0.02, -0.016, -0.012, -0.008, -0.004, 0.0, 0.004, 0.008, 0.012, 0.016, 0.02, 0.024, 0.028, 0.032, 0.036, 0.04, 0.044, 0.048, 0.052, 0.056]",None,None,['right'],[0.6609128749696538],[None],up,1.8083623749553226,None,353.3545427499921,353.36154562496813,353.634452749975,353.6242242080043,353.6244048749795,353.634452749975,353.634452749975,354.6346028749831,354.6346028749831,354.6249294159934,1,1,,,,,,,283.6527767079533,283.659053499985,283.659053499985,346.93628895800794,72,13,up,63.26694599998882,None,renee,patients,B,2026-03-24_17h32.25.464,asymmetry_final,2024.2.4,120,2026-03-24 17h36.04.541967 -0400,
1,1,0,5,2,curv_comp,192,2.3,0.06,3.0,-0.236,flat,curv_flat,-0.2,-0.2,0.06,pen,input_data/stims/Shape_2.30_3.00.png,input_data/stims/Shape_0.00_2.00.png,input_data/stims/Shape_4.00_2.00.png,-1,1,-1.0,1.0,1,None,,,up,0.8008089579525404,None,None,None,['right'],[0.39574754098430276],[0.8955630830023438],up,1.4080124159809202,None,1,0,1,0,0,1,1,32,354.6346028749831,,,,,,,,,,,,,,,,,354.62583816598635,0.0008375420002266765,355.56772612500936,355.567775665957,355.60340379097033,356.66237049998017,356.6550342499977,356.6553551660036,0.0003263329854235053,358.0973092499771,358.0986079159775,358.16056124999886,358.16056124999886,358.16056124999886,358.16056124999886,358.16056124999886,358.16056124999886,358.16056124999886,359.5757604999817,"[-0.236, -0.236, -0.236, -0.236, -0.236, -0.236, -0.236, -0.236, -0.236, -0.236, -0.236, -0.236, -0.236, -0.236, -0.236, -0.236, -0.236, -0.236, -0.236, -0.236, -0.236, -0.236, -0.236, -0.236, -0.236, -0.236, -0.236, -0.236, -0.236, -0.236, -0.236, -0.236, -0.236, -0.236, -0.236, -0.236, -0.236, -0.236, -0.236, -0.236, -0.232, -0.228, -0.224, -0.22, -0.216, -0.212, -0.208, -0.204, -0.2, -0.196, -0.192, -0.188, -0.184, -0.18, -0.176, -0.172, -0.168, -0.164, -0.16, -0.156, -0.152, -0.148, -0.144, -0.14, -0.136, -0.132, -0.128, -0.124, -0.12, -0.116, -0.112, -0.108, -0.104, -0.1, -0.096, -0.092, -0.088, -0.084, -0.08, -0.076, -0.072, -0.068, -0.064, -0.06, -0.056, -0.052, -0.048, -0.044, -0.04, -0.036, -0.032, -0.028, -0.024, -0.02, -0.016, -0.012, -0.008, -0.004, 0.0, 0.004, 0.008, 0.012, 0.016, 0.02, 0.024, 0.028, 0.032, 0.036, 0.04, 0.044, 0.048, 0.052, 0.052, 0.052, 0.052, 0.052, 0.052, 0.052, 0.052, 0.052]",None,None,['right'],[0.39574754098430276],[0.8955630830023438],up,1.4080124159809202,None,359.57616087497445,359.58367616595933,359.868326124968,359.85827525000786,359.8583595409873,359.868326124968,359.868326124968,360.8682552079554,360.8682552079554,360.85797970800195,1,1,,,,,,,,,,,,,,,,renee,patients,B,2026-03-24_17h32.25.464,asymmetry_final,2024.2.4,120,2026-03-24 17h36.04.541967 -0400,
