thisN,thisTrialN,thisRepN,blockN,run,condition,trial_key,stim_file_pos,stim_pos,noise_pos,marker_init,shape,shape_order,div_pos,target_pos,subj_C0F1_val,subj_C1F0_val,target_file,img1_file,img2_file,block_start_resp.keys,block_start_resp.rt,block_start_resp.duration,marker.response,marker.rt,slider_resp.keys,slider_resp.rt,slider_resp.duration,submit_resp.keys,submit_resp.rt,submit_resp.duration,blocks.thisRepN,blocks.thisTrialN,blocks.thisN,blocks.thisIndex,trials.thisRepN,trials.thisTrialN,trials.thisN,trials.thisIndex,thisRow.t,notes,block_start.started,block_start_text.started,block_start_resp.started,block_start.stopped,blocks.block_start_resp.keys,blocks.block_start_resp.rt,blocks.block_start_resp.duration,baseline.started,ISI1.started,baseline.stopped,stim.started,target_stim.started,target_stim.stopped,stim.stopped,delay.started,ISI2.started,delay.stopped,task.started,img1.started,img2.started,divider_line.started,slider_line.started,marker.started,slider_resp.started,submit_resp.started,task.stopped,positions,trials.marker.response,trials.marker.rt,trials.slider_resp.keys,trials.slider_resp.rt,trials.slider_resp.duration,trials.submit_resp.keys,trials.submit_resp.rt,trials.submit_resp.duration,anticipation.started,anticipation_text.started,anticipation_text.stopped,anticipation.stopped,feedback.started,no_resp_text.started,three_coin.started,no_resp_text.stopped,three_coin.stopped,feedback.stopped,valence,correct,outcome,one_coin.started,one_coin.stopped,one_cross.started,one_cross.stopped,three_cross.started,three_cross.stopped,block_end.started,block_end_text.started,block_end_resp.started,block_end.stopped,block_outcome,block_bonus,blocks.block_end_resp.keys,blocks.block_end_resp.rt,blocks.block_end_resp.duration,img1.stopped,img2.stopped,divider_line.stopped,slider_line.stopped,marker.stopped,slider_resp.stopped,submit_resp.stopped,subj,difficulty,sess_type,date,expName,psychopyVersion,frameRate,expStart,
0,0,0,1,1,baseline,7,0.7,-0.26,0.0,0.08,curv,flat_curv,0.0,0.26,pen,rew,input_data/stims/Shape_0.70_0.00.png,input_data/stims/Shape_4.00_2.00.png,input_data/stims/Shape_0.00_2.00.png,up,31.93141712504439,None,None,None,"['right', 'left']","[0.9575747500639409, 1.525696541997604]","[0.21191429195459932, 0.22414875007234514]",up,2.581878500059247,None,0,0,0,0,0,0,0,7,32.51883145805914,,0.24943900003563613,0.50541416706983,0.50541416706983,32.441641458077356,up,31.93141712504439,None,32.496860875049606,0.05517900001723319,33.48942925001029,33.48946908302605,33.53276762505993,34.700558291981,34.69509170798119,34.69538683304563,0.0003139579202979803,36.08729845797643,36.08851416700054,36.20376512501389,36.20376512501389,36.20376512501389,36.20376512501389,36.20376512501389,36.20376512501389,36.20376512501389,38.79087479203008,"[0.08, 0.08, 0.08, 0.08, 0.08, 0.08, 0.08, 0.08, 0.08, 0.08, 0.08, 0.08, 0.08, 0.08, 0.08, 0.08, 0.08, 0.08, 0.08, 0.08, 0.08, 0.08, 0.08, 0.08, 0.08, 0.08, 0.08, 0.08, 0.08, 0.08, 0.08, 0.08, 0.08, 0.08, 0.08, 0.08, 0.08, 0.08, 0.08, 0.08, 0.08, 0.08, 0.08, 0.08, 0.08, 0.08, 0.08, 0.08, 0.08, 0.08, 0.08, 0.08, 0.08, 0.08, 0.08, 0.08, 0.08, 0.08, 0.08, 0.08, 0.08, 0.08, 0.08, 0.08, 0.08, 0.08, 0.08, 0.08, 0.08, 0.08, 0.08, 0.08, 0.08, 0.08, 0.08, 0.08, 0.08, 0.08, 0.08, 0.08, 0.08, 0.08, 0.08, 0.08, 0.08, 0.08, 0.08, 0.088, 0.096, 0.104, 0.112, 0.12, 0.128, 0.136, 0.144, 0.152, 0.16, 0.168, 0.176, 0.184, 0.192, 0.2, 0.208, 0.216, 0.216, 0.216, 0.216, 0.216, 0.216, 0.216, 0.216, 0.216, 0.216, 0.216, 0.216, 0.216, 0.216, 0.216, 0.216, 0.216, 0.216, 0.216, 0.216, 0.216, 0.216, 0.216, 0.216, 0.216, 0.216, 0.216, 0.216, 0.216, 0.216, 0.216, 0.208, 0.2, 0.192, 0.184, 0.176, 0.168, 0.16, 0.152, 0.144, 0.136, 0.128, 0.12, 0.112, 0.104, 0.096, 0.088, 0.08, 0.072, 0.064, 0.064, 0.064, 0.064, 0.064, 0.064, 0.064, 0.064, 0.064, 0.064, 0.064, 0.064, 0.064, 0.064, 0.064, 0.064, 0.064, 0.064, 0.064, 0.064, 0.064, 0.064, 0.064, 0.064, 0.064, 0.064, 0.064, 0.064, 0.064, 0.064, 0.064, 0.064, 0.064, 0.064, 0.064, 0.064, 0.064, 0.064, 0.064, 0.064, 0.064, 0.064, 0.064, 0.064, 0.064, 0.064, 0.064, 0.064, 0.064, 0.064, 0.064, 0.064, 0.064, 0.064, 0.064, 0.064, 0.064, 0.064, 0.064, 0.064, 0.064, 0.064, 0.064, 0.064, 0.064, 0.064, 0.064, 0.064, 0.064, 0.064, 0.064]",None,None,"['right', 'left']","[0.9575747500639409, 1.525696541997604]","[0.21191429195459932, 0.22414875007234514]",up,2.581878500059247,None,38.79144200007431,38.80052250006702,39.05299225007184,39.04061912500765,39.040709124994464,39.05299225007184,39.05299225007184,40.05877737503033,40.05877737503033,40.05140437500086,rew,1,3,,,,,,,,,,,,,,,,,,,,,,,,hard,B,2025-04-05_18h29.17.206,asymmetry_final,2024.2.4,120,2025-04-05 18h29.29.431897 -0400,
1,1,0,1,1,baseline,10,1.1,-0.18,0.0,0.012,curv,curv_flat,0.0,-0.18,pen,rew,input_data/stims/Shape_1.10_0.00.png,input_data/stims/Shape_0.00_2.00.png,input_data/stims/Shape_4.00_2.00.png,up,31.93141712504439,None,None,None,['left'],[1.5210904580308124],[0.20800645800773054],up,2.1023740409873426,None,0,0,0,0,0,1,1,10,40.05877737503033,,,,,,,,,40.0522540420061,0.0008114170050248504,41.094138792017475,41.094187917071395,41.12678566703107,42.30748258298263,42.30214058305137,42.30249250004999,0.00036550010554492474,43.59440220799297,43.59562687505968,43.6578253749758,43.6578253749758,43.6578253749758,43.6578253749758,43.6578253749758,43.6578253749758,43.6578253749758,45.77283316699322,"[0.012, 0.012, 0.012, 0.012, 0.012, 0.012, 0.012, 0.012, 0.012, 0.012, 0.012, 0.012, 0.012, 0.012, 0.012, 0.012, 0.012, 0.012, 0.012, 0.012, 0.012, 0.012, 0.012, 0.012, 0.012, 0.012, 0.012, 0.012, 0.012, 0.012, 0.012, 0.012, 0.012, 0.012, 0.012, 0.012, 0.012, 0.012, 0.012, 0.012, 0.012, 0.012, 0.012, 0.012, 0.012, 0.012, 0.012, 0.012, 0.012, 0.012, 0.012, 0.012, 0.012, 0.012, 0.012, 0.012, 0.012, 0.012, 0.012, 0.012, 0.012, 0.012, 0.012, 0.012, 0.012, 0.012, 0.012, 0.012, 0.012, 0.012, 0.012, 0.012, 0.012, 0.012, 0.012, 0.012, 0.012, 0.012, 0.012, 0.012, 0.012, 0.012, 0.012, 0.012, 0.012, 0.012, 0.012, 0.012, 0.012, 0.012, 0.012, 0.012, 0.012, 0.012, 0.012, 0.012, 0.012, 0.012, 0.012, 0.012, 0.012, 0.012, 0.012, 0.012, 0.012, 0.012, 0.012, 0.012, 0.012, 0.012, 0.012, 0.012, 0.012, 0.012, 0.012, 0.012, 0.012, 0.012, 0.012, 0.012, 0.012, 0.012, 0.012, 0.012, 0.012, 0.012, 0.012, 0.012, 0.012, 0.012, 0.004, -0.004, -0.012, -0.02, -0.028, -0.036, -0.044, -0.052, -0.06, -0.068, -0.076, -0.084, -0.092, -0.1, -0.108, -0.116, -0.116, -0.116, -0.116, -0.116, -0.116, -0.116, -0.116, -0.116, -0.116, -0.116, -0.116, -0.116, -0.116, -0.116, -0.116, -0.116, -0.116, -0.116, -0.116, -0.116, -0.116, -0.116, -0.116, -0.116, -0.116, -0.116, -0.116, -0.116, -0.116, -0.116, -0.116, -0.116, -0.116, -0.116]",None,None,['left'],[1.5210904580308124],[0.20800645800773054],up,2.1023740409873426,None,45.77333825000096,45.78112983307801,46.034219708060846,46.02475012501236,46.024843625025824,46.034219708060846,46.034219708060846,47.0395514999982,47.0395514999982,47.034457625006326,rew,1,3,,,,,,,,,,,,,,,,,,,,,,,,hard,B,2025-04-05_18h29.17.206,asymmetry_final,2024.2.4,120,2025-04-05 18h29.29.431897 -0400,
2,2,0,1,1,baseline,12,1.3,-0.14,0.0,-0.32,curv,curv_flat,0.0,-0.14,pen,rew,input_data/stims/Shape_1.30_0.00.png,input_data/stims/Shape_0.00_2.00.png,input_data/stims/Shape_4.00_2.00.png,up,31.93141712504439,None,None,None,['right'],[0.9936176670016721],[0.40021420805715024],up,1.7394368750974536,None,0,0,0,0,0,2,2,12,47.0395514999982,,,,,,,,,47.035054708016105,0.0005844170227646828,48.07690912508406,48.07695083308499,48.114353292039596,49.30306045804173,49.29732587502804,49.29756229207851,0.00024008401669561863,50.73950025008526,50.74090225005057,50.79963137500454,50.79963137500454,50.79963137500454,50.79963137500454,50.79963137500454,50.79963137500454,50.79963137500454,52.54405087500345,"[-0.32, -0.32, -0.32, -0.32, -0.32, -0.32, -0.32, -0.32, -0.32, -0.32, -0.32, -0.32, -0.32, -0.32, -0.32, -0.32, -0.32, -0.32, -0.32, -0.32, -0.32, -0.32, -0.32, -0.32, -0.32, -0.32, -0.32, -0.32, -0.32, -0.32, -0.32, -0.32, -0.32, -0.32, -0.32, -0.32, -0.32, -0.32, -0.32, -0.32, -0.32, -0.32, -0.32, -0.32, -0.32, -0.32, -0.32, -0.32, -0.32, -0.32, -0.32, -0.32, -0.32, -0.32, -0.32, -0.32, -0.32, -0.32, -0.32, -0.32, -0.32, -0.32, -0.32, -0.32, -0.32, -0.32, -0.32, -0.32, -0.32, -0.32, -0.32, -0.32, -0.32, -0.32, -0.32, -0.32, -0.32, -0.32, -0.32, -0.32, -0.32, -0.32, -0.32, -0.32, -0.32, -0.32, -0.32, -0.32, -0.32, -0.312, -0.304, -0.296, -0.288, -0.28, -0.272, -0.264, -0.256, -0.248, -0.24, -0.232, -0.224, -0.216, -0.208, -0.2, -0.192, -0.184, -0.176, -0.168, -0.16, -0.152, -0.144, -0.136, -0.128, -0.12, -0.112, -0.104, -0.096, -0.088, -0.088, -0.088, -0.088, -0.088, -0.088, -0.088, -0.088, -0.088, -0.088, -0.088, -0.088, -0.088, -0.088, -0.088, -0.088, -0.088, -0.088, -0.088, -0.088, -0.088, -0.088, -0.088, -0.088, -0.088, -0.088, -0.088, -0.088, -0.088, -0.088, -0.088, -0.088, -0.088]",None,None,['right'],[0.9936176670016721],[0.40021420805715024],up,1.7394368750974536,None,52.544485875056125,52.55317325005308,52.817952333018184,52.8084981670836,52.808629625011235,52.817952333018184,52.817952333018184,53.81770591705572,53.81770591705572,53.80804887507111,rew,1,3,,,,,,,,,,,,,,,,,,,,,,,,hard,B,2025-04-05_18h29.17.206,asymmetry_final,2024.2.4,120,2025-04-05 18h29.29.431897 -0400,
3,3,0,1,1,baseline,16,1.7,-0.06,0.0,-0.356,curv,curv_flat,0.0,-0.06,pen,rew,input_data/stims/Shape_1.70_0.00.png,input_data/stims/Shape_0.00_2.00.png,input_data/stims/Shape_4.00_2.00.png,up,31.93141712504439,None,None,None,['right'],[0.8040382500039414],[0.4399775000056252],up,1.536093208938837,None,0,0,0,0,0,3,3,16,53.81770591705572,,,,,,,,,53.80874541704543,0.0006750409957021475,54.8006903330097,54.80073520797305,54.83409937506076,56.067888666992076,56.05731950001791,56.05760366702452,0.00028929102700203657,57.39946654206142,57.40066770801786,57.466171792009845,57.466171792009845,57.466171792009845,57.466171792009845,57.466171792009845,57.466171792009845,57.466171792009845,59.01032416697126,"[-0.356, -0.356, -0.356, -0.356, -0.356, -0.356, -0.356, -0.356, -0.356, -0.356, -0.356, -0.356, -0.356, -0.356, -0.356, -0.356, -0.356, -0.356, -0.356, -0.356, -0.356, -0.356, -0.356, -0.356, -0.356, -0.356, -0.356, -0.356, -0.356, -0.356, -0.356, -0.356, -0.356, -0.356, -0.356, -0.356, -0.356, -0.356, -0.356, -0.356, -0.356, -0.356, -0.356, -0.356, -0.356, -0.356, -0.356, -0.356, -0.356, -0.356, -0.356, -0.356, -0.356, -0.356, -0.356, -0.356, -0.356, -0.356, -0.356, -0.356, -0.356, -0.356, -0.356, -0.356, -0.356, -0.356, -0.356, -0.356, -0.356, -0.356, -0.356, -0.356, -0.356, -0.348, -0.34, -0.332, -0.324, -0.316, -0.308, -0.3, -0.292, -0.284, -0.276, -0.268, -0.26, -0.252, -0.244, -0.236, -0.228, -0.22, -0.212, -0.204, -0.196, -0.188, -0.18, -0.172, -0.164, -0.156, -0.148, -0.14, -0.132, -0.124, -0.116, -0.108, -0.1, -0.092, -0.084, -0.084, -0.084, -0.084, -0.084, -0.084, -0.084, -0.084, -0.084, -0.084, -0.084, -0.084, -0.084, -0.084, -0.084, -0.084, -0.084, -0.084, -0.084, -0.084, -0.084, -0.084, -0.084, -0.084, -0.084, -0.084, -0.084, -0.084]",None,None,['right'],[0.8040382500039414],[0.4399775000056252],up,1.536093208938837,None,59.01074120798148,59.03468416701071,59.28515533299651,59.27492754207924,59.27514116698876,59.28515533299651,59.28515533299651,60.28446762508247,60.28446762508247,60.274188500014134,rew,1,3,,,,,,,,,,,,,,,,,,,,,,,,hard,B,2025-04-05_18h29.17.206,asymmetry_final,2024.2.4,120,2025-04-05 18h29.29.431897 -0400,
4,4,0,1,1,baseline,20,2.1,0.02,4.0,-0.296,flat,curv_flat,0.0,0.02,rew,pen,input_data/stims/Shape_2.10_4.00.png,input_data/stims/Shape_0.00_2.00.png,input_data/stims/Shape_4.00_2.00.png,up,31.93141712504439,None,None,None,['right'],[0.4953290829434991],[0.5157988340361044],up,1.3018108330434188,None,0,0,0,0,0,4,4,20,60.28446762508247,,,,,,,,,60.2749402920017,0.0007411669939756393,61.16690195805859,61.16694445803296,61.200208083027974,62.46813354198821,62.4459772920236,62.44622712500859,0.0002502499846741557,63.88822745799553,63.889548250008374,63.95587225002237,63.95587225002237,63.95587225002237,63.95587225002237,63.95587225002237,63.95587225002237,63.95587225002237,65.26460750005208,"[-0.296, -0.296, -0.296, -0.296, -0.296, -0.296, -0.296, -0.296, -0.296, -0.296, -0.296, -0.296, -0.296, -0.296, -0.296, -0.296, -0.296, -0.296, -0.296, -0.296, -0.296, -0.296, -0.296, -0.296, -0.296, -0.296, -0.296, -0.296, -0.296, -0.296, -0.296, -0.296, -0.296, -0.296, -0.296, -0.296, -0.296, -0.296, -0.296, -0.296, -0.296, -0.296, -0.296, -0.296, -0.296, -0.296, -0.296, -0.288, -0.28, -0.272, -0.264, -0.256, -0.248, -0.24, -0.232, -0.224, -0.216, -0.208, -0.2, -0.192, -0.184, -0.176, -0.168, -0.16, -0.152, -0.144, -0.136, -0.128, -0.12, -0.112, -0.104, -0.096, -0.088, -0.08, -0.072, -0.064, -0.056, -0.048, -0.04, -0.032, -0.024, -0.016, -0.008, 0.0, 0.008, 0.016, 0.024, 0.024, 0.024, 0.024, 0.024, 0.024, 0.024, 0.024, 0.024, 0.024, 0.024, 0.024, 0.024, 0.024, 0.024, 0.024, 0.024, 0.024, 0.024, 0.024, 0.024, 0.024, 0.024, 0.024, 0.024, 0.024, 0.024, 0.024]",None,None,['right'],[0.4953290829434991],[0.5157988340361044],up,1.3018108330434188,None,65.26500558305997,65.27241933299229,65.52634916699026,65.51855608297046,65.5186688330723,65.52634916699026,,66.53451229201164,,66.5245562500786,pen,1,1,65.52634916699026,66.53451229201164,,,,,,,,,,,,,,,,,,,,,,hard,B,2025-04-05_18h29.17.206,asymmetry_final,2024.2.4,120,2025-04-05 18h29.29.431897 -0400,
5,5,0,1,1,baseline,2,0.3,-0.34,0.0,0.008,curv,curv_flat,0.0,-0.34,pen,rew,input_data/stims/Shape_0.30_0.00.png,input_data/stims/Shape_0.00_2.00.png,input_data/stims/Shape_4.00_2.00.png,up,31.93141712504439,None,None,None,['left'],[0.9427349159959704],[0.2319376670056954],up,1.5415519160451367,None,0,0,0,0,0,5,5,2,66.53451229201164,,,,,,,,,66.52526350005064,0.0006916659185662866,67.41719850001391,67.41723999998067,67.4499455000041,68.70121412503067,68.6792887080228,68.67954370798543,0.0002693749265745282,69.97149374999572,69.97270079201553,70.03565279208124,70.03565279208124,70.03565279208124,70.03565279208124,70.03565279208124,70.03565279208124,70.03565279208124,71.58873575006146,"[0.008, 0.008, 0.008, 0.008, 0.008, 0.008, 0.008, 0.008, 0.008, 0.008, 0.008, 0.008, 0.008, 0.008, 0.008, 0.008, 0.008, 0.008, 0.008, 0.008, 0.008, 0.008, 0.008, 0.008, 0.008, 0.008, 0.008, 0.008, 0.008, 0.008, 0.008, 0.008, 0.008, 0.008, 0.008, 0.008, 0.008, 0.008, 0.008, 0.008, 0.008, 0.008, 0.008, 0.008, 0.008, 0.008, 0.008, 0.008, 0.008, 0.008, 0.008, 0.008, 0.008, 0.008, 0.008, 0.008, 0.008, 0.008, 0.008, 0.008, 0.008, 0.008, 0.008, 0.008, 0.008, 0.008, 0.008, 0.008, 0.008, 0.008, 0.008, 0.008, 0.008, 0.008, 0.008, 0.008, 0.008, 0.008, 0.008, 0.008, 0.0, -0.008, -0.016, -0.024, -0.032, -0.04, -0.048, -0.056, -0.064, -0.072, -0.08, -0.088, -0.096, -0.104, -0.112, -0.12, -0.128, -0.136, -0.136, -0.136, -0.136, -0.136, -0.136, -0.136, -0.136, -0.136, -0.136, -0.136, -0.136, -0.136, -0.136, -0.136, -0.136, -0.136, -0.136, -0.136, -0.136, -0.136, -0.136, -0.136, -0.136, -0.136, -0.136, -0.136, -0.136, -0.136, -0.136, -0.136, -0.136, -0.136, -0.136]",None,None,['left'],[0.9427349159959704],[0.2319376670056954],up,1.5415519160451367,None,71.58918820798863,71.59705233306158,71.85133379197214,71.84069179208018,71.84083925001323,71.85133379197214,71.85133379197214,72.85149341705255,72.85149341705255,72.84111404197756,rew,1,3,,,,,,,,,,,,,,,,,,,,,,,,hard,B,2025-04-05_18h29.17.206,asymmetry_final,2024.2.4,120,2025-04-05 18h29.29.431897 -0400,
6,6,0,1,1,baseline,35,3.5,0.3,4.0,0.264,flat,flat_curv,0.0,-0.3,rew,pen,input_data/stims/Shape_3.50_4.00.png,input_data/stims/Shape_4.00_2.00.png,input_data/stims/Shape_0.00_2.00.png,up,31.93141712504439,None,None,None,['left'],[0.7836428330047056],[0.5280464169336483],up,1.604547041002661,None,0,0,0,0,0,6,6,35,72.85149341705255,,,,,,,,,72.8417378750164,0.0006143338978290558,73.93361150007695,73.93365362507757,73.96888529206626,75.15185374999419,75.12970691698138,75.12994000001345,0.0002680410398170352,76.47194483305793,76.47313229204156,76.53599170804955,76.53599170804955,76.53599170804955,76.53599170804955,76.53599170804955,76.53599170804955,76.53599170804955,78.14779487508349,"[0.264, 0.264, 0.264, 0.264, 0.264, 0.264, 0.264, 0.264, 0.264, 0.264, 0.264, 0.264, 0.264, 0.264, 0.264, 0.264, 0.264, 0.264, 0.264, 0.264, 0.264, 0.264, 0.264, 0.264, 0.264, 0.264, 0.264, 0.264, 0.264, 0.264, 0.264, 0.264, 0.264, 0.264, 0.264, 0.264, 0.264, 0.264, 0.264, 0.264, 0.264, 0.264, 0.264, 0.264, 0.264, 0.264, 0.264, 0.264, 0.264, 0.264, 0.264, 0.264, 0.264, 0.264, 0.264, 0.264, 0.264, 0.264, 0.264, 0.264, 0.264, 0.264, 0.264, 0.264, 0.264, 0.264, 0.264, 0.264, 0.264, 0.256, 0.248, 0.24, 0.232, 0.224, 0.216, 0.208, 0.2, 0.192, 0.184, 0.176, 0.168, 0.16, 0.152, 0.144, 0.136, 0.128, 0.12, 0.112, 0.104, 0.096, 0.088, 0.08, 0.072, 0.064, 0.056, 0.048, 0.04, 0.032, 0.024, 0.016, 0.008, 0.0, -0.008, -0.016, -0.024, -0.032, -0.04, -0.048, -0.056, -0.056, -0.056, -0.056, -0.056, -0.056, -0.056, -0.056, -0.056, -0.056, -0.056, -0.056, -0.056, -0.056, -0.056, -0.056, -0.056, -0.056, -0.056, -0.056, -0.056, -0.056, -0.056]",None,None,['left'],[0.7836428330047056],[0.5280464169336483],up,1.604547041002661,None,78.14822412503418,78.15512566699181,78.40940129198134,78.40240837505553,78.40249887504615,78.40940129198134,,79.417810791987,,79.40814937499817,pen,1,1,78.40940129198134,79.417810791987,,,,,,,,,,,,,,,,,,,,,,hard,B,2025-04-05_18h29.17.206,asymmetry_final,2024.2.4,120,2025-04-05 18h29.29.431897 -0400,
7,7,0,1,1,baseline,14,1.5,-0.1,0.0,0.392,curv,curv_flat,0.0,-0.1,pen,rew,input_data/stims/Shape_1.50_0.00.png,input_data/stims/Shape_0.00_2.00.png,input_data/stims/Shape_4.00_2.00.png,up,31.93141712504439,None,None,None,"['left', 'left']","[0.6880086660385132, 1.5686612500576302]","[0.6158672920428216, 0.272056124988012]",up,1.9702505830209702,None,0,0,0,0,0,7,7,14,79.417810791987,,,,,,,,,79.40888479200657,0.0007190420292317867,80.30143504205626,80.30147791700438,80.33478074998129,81.45761295803823,81.45242254203185,81.45273204206023,0.0003137079766020179,82.84462075005285,82.84586825000588,82.90788545797113,82.90788545797113,82.90788545797113,82.90788545797113,82.90788545797113,82.90788545797113,82.90788545797113,84.88738837500568,"[0.392, 0.392, 0.392, 0.392, 0.392, 0.392, 0.392, 0.392, 0.392, 0.392, 0.392, 0.392, 0.392, 0.392, 0.392, 0.392, 0.392, 0.392, 0.392, 0.392, 0.392, 0.392, 0.392, 0.392, 0.392, 0.392, 0.392, 0.392, 0.392, 0.392, 0.392, 0.392, 0.392, 0.392, 0.392, 0.392, 0.392, 0.392, 0.392, 0.392, 0.392, 0.392, 0.392, 0.392, 0.392, 0.392, 0.392, 0.392, 0.392, 0.392, 0.392, 0.392, 0.392, 0.392, 0.392, 0.384, 0.376, 0.368, 0.36, 0.352, 0.344, 0.336, 0.328, 0.32, 0.312, 0.304, 0.296, 0.288, 0.28, 0.272, 0.264, 0.256, 0.248, 0.24, 0.232, 0.224, 0.216, 0.208, 0.2, 0.192, 0.184, 0.176, 0.168, 0.16, 0.152, 0.144, 0.136, 0.128, 0.12, 0.112, 0.104, 0.096, 0.088, 0.08, 0.072, 0.064, 0.056, 0.048, 0.04, 0.032, 0.024, 0.016, 0.008, 0.0, 0.0, 0.0, 0.0, 0.0, 0.0, 0.0, 0.0, 0.0, 0.0, 0.0, 0.0, 0.0, 0.0, 0.0, 0.0, 0.0, 0.0, 0.0, 0.0, 0.0, 0.0, 0.0, 0.0, 0.0, -0.008, -0.016, -0.024, -0.032, -0.04, -0.048, -0.056, -0.064, -0.072, -0.08, -0.088, -0.096, -0.104, -0.112, -0.12, -0.128, -0.136, -0.144, -0.144, -0.144, -0.144, -0.144, -0.144, -0.144, -0.144, -0.144, -0.144, -0.144, -0.144, -0.144, -0.144]",None,None,"['left', 'left']","[0.6880086660385132, 1.5686612500576302]","[0.6158672920428216, 0.272056124988012]",up,1.9702505830209702,None,84.88796066702344,84.89591379207559,85.14190408308059,85.13520520797465,85.1353075420484,85.14190408308059,85.14190408308059,86.1409418330295,86.1409418330295,86.13491408305708,rew,1,3,,,,,,,,,,,,,,,,,,,,,,,,hard,B,2025-04-05_18h29.17.206,asymmetry_final,2024.2.4,120,2025-04-05 18h29.29.431897 -0400,
8,8,0,1,1,baseline,6,0.7,-0.26,0.0,0.02,curv,curv_flat,0.0,-0.26,pen,rew,input_data/stims/Shape_0.70_0.00.png,input_data/stims/Shape_0.00_2.00.png,input_data/stims/Shape_4.00_2.00.png,up,31.93141712504439,None,None,None,['left'],[0.5676285839872435],[0.3204833330819383],up,1.165992584079504,None,0,0,0,0,0,8,8,6,86.1409418330295,,,,,,,,,86.13566945807543,0.0007444169605150819,87.17761825001799,87.17765945801511,87.21009095804766,88.39350841706619,88.38794037501793,88.38825641700532,0.0003368330653756857,89.78018025006168,89.78153245802969,89.84304870804772,89.84304870804772,89.84304870804772,89.84304870804772,89.84304870804772,89.84304870804772,89.84304870804772,91.01761062501464,"[0.02, 0.02, 0.02, 0.02, 0.02, 0.02, 0.02, 0.02, 0.02, 0.02, 0.02, 0.02, 0.02, 0.02, 0.02, 0.02, 0.02, 0.02, 0.02, 0.02, 0.02, 0.02, 0.02, 0.02, 0.02, 0.02, 0.02, 0.02, 0.02, 0.02, 0.02, 0.02, 0.02, 0.02, 0.02, 0.02, 0.02, 0.02, 0.02, 0.02, 0.02, 0.02, 0.02, 0.02, 0.02, 0.02, 0.02, 0.02, 0.02, 0.012, 0.004, -0.004, -0.012, -0.02, -0.028, -0.036, -0.044, -0.052, -0.06, -0.068, -0.076, -0.084, -0.092, -0.1, -0.108, -0.116, -0.124, -0.132, -0.14, -0.148, -0.156, -0.164, -0.164, -0.164, -0.164, -0.164, -0.164, -0.164, -0.164, -0.164, -0.164, -0.164, -0.164, -0.164, -0.164, -0.164, -0.164, -0.164, -0.164, -0.164, -0.164, -0.164, -0.164, -0.164, -0.164]",None,None,['left'],[0.5676285839872435],[0.3204833330819383],up,1.165992584079504,None,91.01792229199782,91.02554270799737,91.28514483303297,91.27393250004388,91.27403204201255,91.28514483303297,91.28514483303297,92.28461404202972,92.28461404202972,92.27488683303818,rew,1,3,,,,,,,,,,,,,,,,,,,,,,,,hard,B,2025-04-05_18h29.17.206,asymmetry_final,2024.2.4,120,2025-04-05 18h29.29.431897 -0400,
9,9,0,1,1,baseline,11,1.1,-0.18,0.0,0.104,curv,flat_curv,0.0,0.18,pen,rew,input_data/stims/Shape_1.10_0.00.png,input_data/stims/Shape_4.00_2.00.png,input_data/stims/Shape_0.00_2.00.png,up,31.93141712504439,None,None,None,None,,,up,0.8677642920520157,None,0,0,0,0,0,9,9,11,92.28461404202972,,,,,,,,,92.27548800001387,0.0005923340795561671,93.36738325003535,93.3674245000584,93.40148383297492,94.65744745801203,94.65168420807458,94.65191791707184,0.0002424580743536353,96.04384579206817,96.04501808306668,96.10866145801265,96.10866145801265,96.10866145801265,96.10866145801265,96.10866145801265,96.10866145801265,96.10866145801265,96.98372695804574,"[0.104, 0.104, 0.104, 0.104, 0.104, 0.104, 0.104, 0.104, 0.104, 0.104, 0.104, 0.104, 0.104, 0.104, 0.104, 0.104, 0.104, 0.104, 0.104, 0.104, 0.104, 0.104, 0.104, 0.104, 0.104, 0.104, 0.104, 0.104, 0.104, 0.104, 0.104, 0.104, 0.104, 0.104, 0.104, 0.104, 0.104, 0.104, 0.104, 0.104, 0.104, 0.104, 0.104, 0.104, 0.104, 0.104, 0.104, 0.104, 0.104, 0.104, 0.104, 0.104, 0.104, 0.104, 0.104, 0.104, 0.104, 0.104, 0.104, 0.104, 0.104, 0.104, 0.104, 0.104, 0.104, 0.104, 0.104, 0.104, 0.104, 0.104, 0.104, 0.104]",None,None,None,,,up,0.8677642920520157,None,96.9840260000201,96.99125891702715,97.26217095798347,97.2351743329782,97.25500045798253,97.26217095798347,,98.25706924998667,,98.25193304207642,rew,0,-1,,,97.26217095798347,98.25706924998667,,,,,,,,,,,,,,,,,,,,hard,B,2025-04-05_18h29.17.206,asymmetry_final,2024.2.4,120,2025-04-05 18h29.29.431897 -0400,
10,10,0,1,1,baseline,4,0.5,-0.3,0.0,-0.14,curv,curv_flat,0.0,-0.3,pen,rew,input_data/stims/Shape_0.50_0.00.png,input_data/stims/Shape_0.00_2.00.png,input_data/stims/Shape_4.00_2.00.png,up,31.93141712504439,None,None,None,None,,,up,1.0293939999537542,None,0,0,0,0,0,10,10,4,98.25706924998667,,,,,,,,,98.25247079203837,0.0005281659541651607,99.19443408306688,99.1944940420799,99.22736937506124,100.43503354198765,100.42922312498558,100.4294737080345,0.00026170804630964994,101.92138325003907,101.92264645802788,101.9847585420357,101.9847585420357,101.9847585420357,101.9847585420357,101.9847585420357,101.9847585420357,101.9847585420357,103.02287641703151,"[-0.14, -0.14, -0.14, -0.14, -0.14, -0.14, -0.14, -0.14, -0.14, -0.14, -0.14, -0.14, -0.14, -0.14, -0.14, -0.14, -0.14, -0.14, -0.14, -0.14, -0.14, -0.14, -0.14, -0.14, -0.14, -0.14, -0.14, -0.14, -0.14, -0.14, -0.14, -0.14, -0.14, -0.14, -0.14, -0.14, -0.14, -0.14, -0.14, -0.14, -0.14, -0.14, -0.14, -0.14, -0.14, -0.14, -0.14, -0.14, -0.14, -0.14, -0.14, -0.14, -0.14, -0.14, -0.14, -0.14, -0.14, -0.14, -0.14, -0.14, -0.14, -0.14, -0.14, -0.14, -0.14, -0.14, -0.14, -0.14, -0.14, -0.14, -0.14, -0.14, -0.14, -0.14, -0.14, -0.14, -0.14, -0.14, -0.14, -0.14, -0.14, -0.14, -0.14, -0.14, -0.14, -0.14, -0.14, -0.14, -0.14, -0.14]",None,None,None,,,up,1.0293939999537542,None,103.02329491707496,103.03191991697531,103.28509970800951,103.2736870420631,103.27376524999272,103.28509970800951,,104.28492712497246,,104.27382258302532,rew,0,-1,,,103.28509970800951,104.28492712497246,,,,,,,,,,,,,,,,,,,,hard,B,2025-04-05_18h29.17.206,asymmetry_final,2024.2.4,120,2025-04-05 18h29.29.431897 -0400,
11,11,0,1,1,baseline,32,3.3,0.26,4.0,-0.048,flat,curv_flat,0.0,0.26,rew,pen,input_data/stims/Shape_3.30_4.00.png,input_data/stims/Shape_0.00_2.00.png,input_data/stims/Shape_4.00_2.00.png,up,31.93141712504439,None,None,None,['right'],[0.6225182090420276],[0.39196570799686015],up,1.2030696249566972,None,0,0,0,0,0,11,11,32,104.28492712497246,,,,,,,,,104.27439416700508,0.000556000042706728,105.21632541704457,105.21636650001165,105.25042262498755,106.43455624999478,106.42942820803728,106.429811583017,0.0003826250322163105,107.82169483299367,107.82289112498984,107.88450016698334,107.88450016698334,107.88450016698334,107.88450016698334,107.88450016698334,107.88450016698334,107.88450016698334,109.09442325006239,"[-0.048, -0.048, -0.048, -0.048, -0.048, -0.048, -0.048, -0.048, -0.048, -0.048, -0.048, -0.048, -0.048, -0.048, -0.048, -0.048, -0.048, -0.048, -0.048, -0.048, -0.048, -0.048, -0.048, -0.048, -0.048, -0.048, -0.048, -0.048, -0.048, -0.048, -0.048, -0.048, -0.048, -0.048, -0.048, -0.048, -0.048, -0.048, -0.048, -0.048, -0.048, -0.048, -0.048, -0.048, -0.048, -0.048, -0.048, -0.048, -0.048, -0.048, -0.048, -0.048, -0.048, -0.048, -0.048, -0.048, -0.048, -0.04, -0.032, -0.024, -0.016, -0.008, 0.0, 0.008, 0.016, 0.024, 0.032, 0.04, 0.048, 0.056, 0.064, 0.072, 0.08, 0.088, 0.096, 0.104, 0.112, 0.12, 0.128, 0.136, 0.144, 0.152, 0.16, 0.168, 0.176, 0.176, 0.176, 0.176, 0.176, 0.176, 0.176, 0.176, 0.176, 0.176, 0.176, 0.176, 0.176, 0.176, 0.176, 0.176, 0.176, 0.176, 0.176]",None,None,['right'],[0.6225182090420276],[0.39196570799686015],up,1.2030696249566972,None,109.0948102499824,109.10335941705853,109.3619600830134,109.3523577080341,109.3540029580472,109.3619600830134,,110.38491899997462,,110.37472262501251,pen,1,1,109.3619600830134,110.38491899997462,,,,,,,,,,,,,,,,,,,,,,hard,B,2025-04-05_18h29.17.206,asymmetry_final,2024.2.4,120,2025-04-05 18h29.29.431897 -0400,
12,12,0,1,1,baseline,24,2.5,0.1,4.0,-0.148,flat,curv_flat,0.0,0.1,rew,pen,input_data/stims/Shape_2.50_4.00.png,input_data/stims/Shape_0.00_2.00.png,input_data/stims/Shape_4.00_2.00.png,up,31.93141712504439,None,None,None,['right'],[0.8997477910015732],[0.40018679201602936],up,1.4762692500371486,None,0,0,0,0,0,12,12,24,110.38491899997462,,,,,,,,,110.37540616700426,0.0006767910672351718,111.26730183302425,111.26734329201281,111.30042441701517,112.49234991706908,112.48599912505597,112.48631900001783,0.00032420805655419827,113.97827729198616,113.97946570802014,114.04064370808192,114.04064370808192,114.04064370808192,114.04064370808192,114.04064370808192,114.04064370808192,114.04064370808192,115.5235240830807,"[-0.148, -0.148, -0.148, -0.148, -0.148, -0.148, -0.148, -0.148, -0.148, -0.148, -0.148, -0.148, -0.148, -0.148, -0.148, -0.148, -0.148, -0.148, -0.148, -0.148, -0.148, -0.148, -0.148, -0.148, -0.148, -0.148, -0.148, -0.148, -0.148, -0.148, -0.148, -0.148, -0.148, -0.148, -0.148, -0.148, -0.148, -0.148, -0.148, -0.148, -0.148, -0.148, -0.148, -0.148, -0.148, -0.148, -0.148, -0.148, -0.148, -0.148, -0.148, -0.148, -0.148, -0.148, -0.148, -0.148, -0.148, -0.148, -0.148, -0.148, -0.148, -0.148, -0.148, -0.148, -0.148, -0.148, -0.148, -0.148, -0.148, -0.148, -0.148, -0.148, -0.148, -0.148, -0.148, -0.148, -0.148, -0.148, -0.148, -0.148, -0.148, -0.14, -0.132, -0.124, -0.116, -0.108, -0.1, -0.092, -0.084, -0.076, -0.068, -0.06, -0.052, -0.044, -0.036, -0.028, -0.02, -0.012, -0.004, 0.004, 0.012, 0.02, 0.028, 0.036, 0.044, 0.052, 0.06, 0.068, 0.076, 0.084, 0.092, 0.1, 0.1, 0.1, 0.1, 0.1, 0.1, 0.1, 0.1, 0.1, 0.1, 0.1, 0.1, 0.1, 0.1, 0.1]",None,None,['right'],[0.8997477910015732],[0.40018679201602936],up,1.4762692500371486,None,115.52409233304206,115.53315458307043,115.79149870807305,115.78520200005732,115.78525670804083,115.79149870807305,,116.79183800006285,,116.78582975000609,pen,1,1,115.79149870807305,116.79183800006285,,,,,,,,,,,,,,,,,,,,,,hard,B,2025-04-05_18h29.17.206,asymmetry_final,2024.2.4,120,2025-04-05 18h29.29.431897 -0400,
13,13,0,1,1,baseline,21,2.1,0.02,4.0,-0.236,flat,flat_curv,0.0,-0.02,rew,pen,input_data/stims/Shape_2.10_4.00.png,input_data/stims/Shape_4.00_2.00.png,input_data/stims/Shape_0.00_2.00.png,up,31.93141712504439,None,None,None,['right'],[1.1139843330020085],[0.08793008304201066],up,1.2826332909753546,None,0,0,0,0,0,13,13,21,116.79183800006285,,,,,,,,,116.7865403330652,0.0006683750543743372,117.82847791700624,117.82852466707118,117.86100625002291,119.0684567920398,119.057350957999,119.05763804202434,0.00029520795214921236,120.44958429201506,120.45077583298553,120.53131629200652,120.53131629200652,120.53131629200652,120.53131629200652,120.53131629200652,120.53131629200652,120.53131629200652,121.83757591701578,"[-0.236, -0.236, -0.236, -0.236, -0.236, -0.236, -0.236, -0.236, -0.236, -0.236, -0.236, -0.236, -0.236, -0.236, -0.236, -0.236, -0.236, -0.236, -0.236, -0.236, -0.236, -0.236, -0.236, -0.236, -0.236, -0.236, -0.236, -0.236, -0.236, -0.236, -0.236, -0.236, -0.236, -0.236, -0.236, -0.236, -0.236, -0.236, -0.236, -0.236, -0.236, -0.236, -0.236, -0.236, -0.236, -0.236, -0.236, -0.236, -0.236, -0.236, -0.236, -0.236, -0.236, -0.236, -0.236, -0.236, -0.236, -0.236, -0.236, -0.236, -0.236, -0.236, -0.236, -0.236, -0.236, -0.236, -0.236, -0.236, -0.236, -0.236, -0.236, -0.236, -0.236, -0.236, -0.236, -0.236, -0.236, -0.236, -0.236, -0.236, -0.236, -0.236, -0.236, -0.236, -0.236, -0.236, -0.236, -0.236, -0.236, -0.236, -0.236, -0.236, -0.236, -0.236, -0.236, -0.236, -0.236, -0.236, -0.236, -0.236, -0.236, -0.236, -0.236, -0.236, -0.228, -0.22, -0.212, -0.204, -0.196, -0.188, -0.18, -0.18, -0.18, -0.18, -0.18, -0.18, -0.18, -0.18, -0.18, -0.18]",None,None,['right'],[1.1139843330020085],[0.08793008304201066],up,1.2826332909753546,None,121.83798808301799,121.84496891708113,122.09264562500175,122.08566587499809,122.08575962507166,122.09264562500175,,123.09180549997836,,123.08571395801846,pen,1,1,122.09264562500175,123.09180549997836,,,,,,,,,,,,,,,,,,,,,,hard,B,2025-04-05_18h29.17.206,asymmetry_final,2024.2.4,120,2025-04-05 18h29.29.431897 -0400,
14,14,0,1,1,baseline,0,0.1,-0.38,0.0,-0.004,curv,curv_flat,0.0,-0.38,pen,rew,input_data/stims/Shape_0.10_0.00.png,input_data/stims/Shape_0.00_2.00.png,input_data/stims/Shape_4.00_2.00.png,up,31.93141712504439,None,None,None,['left'],[0.8898831669939682],[0.29220754106063396],up,1.3376099170418456,None,0,0,0,0,0,14,14,0,123.09180549997836,,,,,,,,,123.08649783302099,0.0007618330419063568,124.12846387503669,124.12850529199932,124.1616104580462,125.38563112507109,125.36333629197907,125.36363725003321,0.0003086249344050884,126.75554775004275,126.75674016703852,126.81710566708352,126.81710566708352,126.81710566708352,126.81710566708352,126.81710566708352,126.81710566708352,126.81710566708352,128.17050658306107,"[-0.004, -0.004, -0.004, -0.004, -0.004, -0.004, -0.004, -0.004, -0.004, -0.004, -0.004, -0.004, -0.004, -0.004, -0.004, -0.004, -0.004, -0.004, -0.004, -0.004, -0.004, -0.004, -0.004, -0.004, -0.004, -0.004, -0.004, -0.004, -0.004, -0.004, -0.004, -0.004, -0.004, -0.004, -0.004, -0.004, -0.004, -0.004, -0.004, -0.004, -0.004, -0.004, -0.004, -0.004, -0.004, -0.004, -0.004, -0.004, -0.004, -0.004, -0.004, -0.004, -0.004, -0.004, -0.004, -0.004, -0.004, -0.004, -0.004, -0.004, -0.004, -0.004, -0.004, -0.004, -0.004, -0.004, -0.004, -0.004, -0.004, -0.004, -0.004, -0.004, -0.004, -0.004, -0.004, -0.004, -0.004, -0.012, -0.02, -0.028, -0.036, -0.044, -0.052, -0.06, -0.068, -0.076, -0.084, -0.092, -0.1, -0.108, -0.116, -0.124, -0.132, -0.14, -0.148, -0.156, -0.164, -0.172, -0.172, -0.172, -0.172, -0.172, -0.172, -0.172, -0.172, -0.172, -0.172, -0.172, -0.172, -0.172, -0.172, -0.172, -0.172]",None,None,['left'],[0.8898831669939682],[0.29220754106063396],up,1.3376099170418456,None,128.17092812503688,128.17837225005496,128.42652991705108,128.41969983302988,128.4197905000765,128.42652991705108,128.42652991705108,129.43490175006445,129.43490175006445,129.42599420808256,rew,1,3,,,,,,,,,,,,,,,,,,,,,,,,hard,B,2025-04-05_18h29.17.206,asymmetry_final,2024.2.4,120,2025-04-05 18h29.29.431897 -0400,
15,15,0,1,1,baseline,15,1.5,-0.1,0.0,0.336,curv,flat_curv,0.0,0.1,pen,rew,input_data/stims/Shape_1.50_0.00.png,input_data/stims/Shape_4.00_2.00.png,input_data/stims/Shape_0.00_2.00.png,up,31.93141712504439,None,None,None,['left'],[0.7246395830297843],[0.6160250840475783],up,1.799071833025664,None,0,0,0,0,0,15,15,15,129.43490175006445,,,,,,,,,129.42659683304373,0.0005926250014454126,130.31851470808033,130.31855637498666,130.35103387502022,131.45945974998176,131.4531348750461,131.45352149999235,0.00039712502621114254,132.74557791708503,132.74676383298356,132.81150725006592,132.81150725006592,132.81150725006592,132.81150725006592,132.81150725006592,132.81150725006592,132.81150725006592,134.6191345420666,"[0.336, 0.336, 0.336, 0.336, 0.336, 0.336, 0.336, 0.336, 0.336, 0.336, 0.336, 0.336, 0.336, 0.336, 0.336, 0.336, 0.336, 0.336, 0.336, 0.336, 0.336, 0.336, 0.336, 0.336, 0.336, 0.336, 0.336, 0.336, 0.336, 0.336, 0.336, 0.336, 0.336, 0.336, 0.336, 0.336, 0.336, 0.336, 0.336, 0.336, 0.336, 0.336, 0.336, 0.336, 0.336, 0.336, 0.336, 0.336, 0.336, 0.336, 0.336, 0.336, 0.336, 0.336, 0.336, 0.336, 0.336, 0.336, 0.336, 0.336, 0.328, 0.32, 0.312, 0.304, 0.296, 0.288, 0.28, 0.272, 0.264, 0.256, 0.248, 0.24, 0.232, 0.224, 0.216, 0.208, 0.2, 0.192, 0.184, 0.176, 0.168, 0.16, 0.152, 0.144, 0.136, 0.128, 0.12, 0.112, 0.104, 0.096, 0.088, 0.08, 0.072, 0.064, 0.056, 0.048, 0.04, 0.032, 0.024, 0.016, 0.008, 0.0, -0.008, -0.016, -0.024, -0.024, -0.024, -0.024, -0.024, -0.024, -0.024, -0.024, -0.024, -0.024, -0.024, -0.024, -0.024, -0.024, -0.024, -0.024, -0.024, -0.024, -0.024, -0.024, -0.024, -0.024, -0.024, -0.024, -0.024, -0.024, -0.024, -0.024, -0.024, -0.024, -0.024, -0.024, -0.024, -0.024, -0.024, -0.024, -0.024, -0.024, -0.024, -0.024, -0.024, -0.024, -0.024]",None,None,['left'],[0.7246395830297843],[0.6160250840475783],up,1.799071833025664,None,134.6195580420317,134.62711262505036,134.87664029200096,134.86912812502123,134.8692117499886,134.87664029200096,,135.87505450006574,,135.86921095801517,rew,0,-1,,,134.87664029200096,135.87505450006574,,,,,,,,,,,,,,,,,,,,hard,B,2025-04-05_18h29.17.206,asymmetry_final,2024.2.4,120,2025-04-05 18h29.29.431897 -0400,
16,16,0,1,1,baseline,26,2.7,0.14,4.0,0.208,flat,curv_flat,0.0,0.14,rew,pen,input_data/stims/Shape_2.70_4.00.png,input_data/stims/Shape_0.00_2.00.png,input_data/stims/Shape_4.00_2.00.png,up,31.93141712504439,None,None,None,['left'],[1.4295792090706527],[0.08731158298905939],up,1.7213980840751901,None,0,0,0,0,0,16,16,26,135.87505450006574,,,,,,,,,135.8698683329858,0.0006425000028684735,136.81187041697558,136.81191091705114,136.8452731249854,138.01044774998445,138.00523454206996,138.0055788330501,0.00034270796459168196,139.2974812920438,139.29870504199062,139.35910845804028,139.35910845804028,139.35910845804028,139.35910845804028,139.35910845804028,139.35910845804028,139.35910845804028,141.0872392919846,"[0.208, 0.208, 0.208, 0.208, 0.208, 0.208, 0.208, 0.208, 0.208, 0.208, 0.208, 0.208, 0.208, 0.208, 0.208, 0.208, 0.208, 0.208, 0.208, 0.208, 0.208, 0.208, 0.208, 0.208, 0.208, 0.208, 0.208, 0.208, 0.208, 0.208, 0.208, 0.208, 0.208, 0.208, 0.208, 0.208, 0.208, 0.208, 0.208, 0.208, 0.208, 0.208, 0.208, 0.208, 0.208, 0.208, 0.208, 0.208, 0.208, 0.208, 0.208, 0.208, 0.208, 0.208, 0.208, 0.208, 0.208, 0.208, 0.208, 0.208, 0.208, 0.208, 0.208, 0.208, 0.208, 0.208, 0.208, 0.208, 0.208, 0.208, 0.208, 0.208, 0.208, 0.208, 0.208, 0.208, 0.208, 0.208, 0.208, 0.208, 0.208, 0.208, 0.208, 0.208, 0.208, 0.208, 0.208, 0.208, 0.208, 0.208, 0.208, 0.208, 0.208, 0.208, 0.208, 0.208, 0.208, 0.208, 0.208, 0.208, 0.208, 0.208, 0.208, 0.208, 0.208, 0.208, 0.208, 0.208, 0.208, 0.208, 0.208, 0.208, 0.208, 0.208, 0.208, 0.208, 0.208, 0.208, 0.208, 0.208, 0.208, 0.208, 0.208, 0.208, 0.208, 0.2, 0.192, 0.184, 0.176, 0.168, 0.16, 0.16, 0.16, 0.16, 0.16, 0.16, 0.16, 0.16, 0.16, 0.16, 0.16, 0.16, 0.16, 0.16, 0.16, 0.16, 0.16, 0.16, 0.16, 0.16]",None,None,['left'],[1.4295792090706527],[0.08731158298905939],up,1.7213980840751901,None,141.08769733307417,141.09560579201207,141.34257504204288,141.33593983307946,141.33604254201055,141.34257504204288,,142.34229958301876,,142.33565866702702,pen,1,1,141.34257504204288,142.34229958301876,,,,,,,,,,,,,,,,,,,,,,hard,B,2025-04-05_18h29.17.206,asymmetry_final,2024.2.4,120,2025-04-05 18h29.29.431897 -0400,
17,17,0,1,1,baseline,23,2.3,0.06,4.0,0.132,flat,flat_curv,0.0,-0.06,rew,pen,input_data/stims/Shape_2.30_4.00.png,input_data/stims/Shape_4.00_2.00.png,input_data/stims/Shape_0.00_2.00.png,up,31.93141712504439,None,None,None,['left'],[0.5516371669946238],[0.3237322500208393],up,1.1624058750458062,None,0,0,0,0,0,17,17,23,142.34229958301876,,,,,,,,,142.33667529199738,0.000996874994598329,143.3786546670599,143.37869525002316,143.41255395801272,144.55180600006133,144.54490141698625,144.54515420808457,0.00026770797558128834,145.83710095798597,145.83828537503723,145.89982295804657,145.89982295804657,145.89982295804657,145.89982295804657,145.89982295804657,145.89982295804657,145.89982295804657,147.0710215420695,"[0.132, 0.132, 0.132, 0.132, 0.132, 0.132, 0.132, 0.132, 0.132, 0.132, 0.132, 0.132, 0.132, 0.132, 0.132, 0.132, 0.132, 0.132, 0.132, 0.132, 0.132, 0.132, 0.132, 0.132, 0.132, 0.132, 0.132, 0.132, 0.132, 0.132, 0.132, 0.132, 0.132, 0.132, 0.132, 0.132, 0.132, 0.132, 0.132, 0.132, 0.132, 0.132, 0.132, 0.132, 0.132, 0.132, 0.132, 0.132, 0.132, 0.132, 0.132, 0.124, 0.116, 0.108, 0.1, 0.092, 0.084, 0.076, 0.068, 0.06, 0.052, 0.044, 0.036, 0.028, 0.02, 0.012, 0.004, -0.004, -0.012, -0.02, -0.028, -0.036, -0.036, -0.036, -0.036, -0.036, -0.036, -0.036, -0.036, -0.036, -0.036, -0.036, -0.036, -0.036, -0.036, -0.036, -0.036, -0.036, -0.036, -0.036, -0.036, -0.036, -0.036, -0.036, -0.036, -0.036, -0.036, -0.036, -0.036]",None,None,['left'],[0.5516371669946238],[0.3237322500208393],up,1.1624058750458062,None,147.0712877920596,147.07793333299924,147.32651320798323,147.31954816705547,147.31965454202145,147.32651320798323,,148.32535737508442,,148.31932391703594,pen,1,1,147.32651320798323,148.32535737508442,,,,,,,,,,,,,,,,,,,,,,hard,B,2025-04-05_18h29.17.206,asymmetry_final,2024.2.4,120,2025-04-05 18h29.29.431897 -0400,
18,18,0,1,1,baseline,25,2.5,0.1,4.0,-0.284,flat,flat_curv,0.0,-0.1,rew,pen,input_data/stims/Shape_2.50_4.00.png,input_data/stims/Shape_4.00_2.00.png,input_data/stims/Shape_0.00_2.00.png,up,31.93141712504439,None,None,None,['right'],[1.0878670420497656],[0.2641326249577105],up,1.4488845840096474,None,0,0,0,0,0,18,18,25,148.32535737508442,,,,,,,,,148.32009587506764,0.0007436659652739763,149.3120642079739,149.31210441701114,149.34540095797274,150.51837433304172,150.51182987506036,150.51208308304194,0.00026333401910960674,152.0040087919915,152.00520791707095,152.07077774999198,152.07077774999198,152.07077774999198,152.07077774999198,152.07077774999198,152.07077774999198,152.07077774999198,153.5289207920432,"[-0.284, -0.284, -0.284, -0.284, -0.284, -0.284, -0.284, -0.284, -0.284, -0.284, -0.284, -0.284, -0.284, -0.284, -0.284, -0.284, -0.284, -0.284, -0.284, -0.284, -0.284, -0.284, -0.284, -0.284, -0.284, -0.284, -0.284, -0.284, -0.284, -0.284, -0.284, -0.284, -0.284, -0.284, -0.284, -0.284, -0.284, -0.284, -0.284, -0.284, -0.284, -0.284, -0.284, -0.284, -0.284, -0.284, -0.284, -0.284, -0.284, -0.284, -0.284, -0.284, -0.284, -0.284, -0.284, -0.284, -0.284, -0.284, -0.284, -0.284, -0.284, -0.284, -0.284, -0.284, -0.284, -0.284, -0.284, -0.284, -0.284, -0.284, -0.284, -0.284, -0.284, -0.284, -0.284, -0.284, -0.284, -0.284, -0.284, -0.284, -0.284, -0.284, -0.284, -0.284, -0.284, -0.284, -0.284, -0.284, -0.284, -0.284, -0.284, -0.284, -0.284, -0.284, -0.284, -0.276, -0.268, -0.26, -0.252, -0.244, -0.236, -0.228, -0.22, -0.212, -0.204, -0.196, -0.188, -0.18, -0.172, -0.164, -0.156, -0.148, -0.14, -0.132, -0.124, -0.116, -0.116, -0.116, -0.116, -0.116, -0.116, -0.116, -0.116, -0.116, -0.116]",None,None,['right'],[1.0878670420497656],[0.2641326249577105],up,1.4488845840096474,None,153.52931958297268,153.53816037497018,153.7927254170645,153.78607612499036,153.78617625008337,153.7927254170645,,154.80214250006247,,154.7925041250419,pen,1,1,153.7927254170645,154.80214250006247,,,,,,,,,,,,,,,,,,,,,,hard,B,2025-04-05_18h29.17.206,asymmetry_final,2024.2.4,120,2025-04-05 18h29.29.431897 -0400,
19,19,0,1,1,baseline,18,1.9,-0.02,0.0,0.048,curv,curv_flat,0.0,-0.02,pen,rew,input_data/stims/Shape_1.90_0.00.png,input_data/stims/Shape_0.00_2.00.png,input_data/stims/Shape_4.00_2.00.png,up,31.93141712504439,None,None,None,['left'],[0.7159542080480605],[0.2559516669716686],up,1.1813734580064192,None,0,0,0,0,0,19,19,18,154.80214250006247,,,,,,,,,154.7932007079944,0.0006862080190330744,155.68513158301357,155.68517262500245,155.7179615420755,156.86846504197456,156.85272112500388,156.85301720805,0.0003100000321865082,158.24496708298102,158.2462710000109,158.3113829169888,158.3113829169888,158.3113829169888,158.3113829169888,158.3113829169888,158.3113829169888,158.3113829169888,159.4976444169879,"[0.048, 0.048, 0.048, 0.048, 0.048, 0.048, 0.048, 0.048, 0.048, 0.048, 0.048, 0.048, 0.048, 0.048, 0.048, 0.048, 0.048, 0.048, 0.048, 0.048, 0.048, 0.048, 0.048, 0.048, 0.048, 0.048, 0.048, 0.048, 0.048, 0.048, 0.048, 0.048, 0.048, 0.048, 0.048, 0.048, 0.048, 0.048, 0.048, 0.048, 0.048, 0.048, 0.048, 0.048, 0.048, 0.048, 0.048, 0.048, 0.048, 0.048, 0.048, 0.048, 0.048, 0.048, 0.048, 0.048, 0.048, 0.048, 0.048, 0.048, 0.048, 0.048, 0.048, 0.048, 0.048, 0.048, 0.048, 0.04, 0.032, 0.024, 0.016, 0.008, 0.0, -0.008, -0.016, -0.024, -0.032, -0.04, -0.048, -0.056, -0.064, -0.072, -0.08, -0.088, -0.096, -0.104, -0.104, -0.104, -0.104, -0.104, -0.104, -0.104, -0.104, -0.104, -0.104, -0.104, -0.104, -0.104, -0.104, -0.104, -0.104, -0.104]",None,None,['left'],[0.7159542080480605],[0.2559516669716686],up,1.1813734580064192,None,159.49813791702036,159.50639524997678,159.7617320830468,159.7533840420656,159.7534927080851,159.7617320830468,159.7617320830468,160.7584945000708,160.7584945000708,160.75285091705155,rew,1,3,,,,,,,,,,,,,,,,,,,,,,,,hard,B,2025-04-05_18h29.17.206,asymmetry_final,2024.2.4,120,2025-04-05 18h29.29.431897 -0400,
20,20,0,1,1,baseline,33,3.3,0.26,4.0,-0.192,flat,flat_curv,0.0,-0.26,rew,pen,input_data/stims/Shape_3.30_4.00.png,input_data/stims/Shape_4.00_2.00.png,input_data/stims/Shape_0.00_2.00.png,up,31.93141712504439,None,None,None,['right'],[1.1310852909227833],[0.15661775006446987],up,1.436271540937014,None,0,0,0,0,0,20,20,33,160.7584945000708,,,,,,,,,160.75355495803524,0.0006814169464632869,161.64551416703034,161.64555741706863,161.67889608303085,162.90223187499214,162.89092908299062,162.89121933304705,0.00029658398125320673,164.28320462501142,164.2844133330509,164.3485310000833,164.3485310000833,164.3485310000833,164.3485310000833,164.3485310000833,164.3485310000833,164.3485310000833,165.78976529208012,"[-0.192, -0.192, -0.192, -0.192, -0.192, -0.192, -0.192, -0.192, -0.192, -0.192, -0.192, -0.192, -0.192, -0.192, -0.192, -0.192, -0.192, -0.192, -0.192, -0.192, -0.192, -0.192, -0.192, -0.192, -0.192, -0.192, -0.192, -0.192, -0.192, -0.192, -0.192, -0.192, -0.192, -0.192, -0.192, -0.192, -0.192, -0.192, -0.192, -0.192, -0.192, -0.192, -0.192, -0.192, -0.192, -0.192, -0.192, -0.192, -0.192, -0.192, -0.192, -0.192, -0.192, -0.192, -0.192, -0.192, -0.192, -0.192, -0.192, -0.192, -0.192, -0.192, -0.192, -0.192, -0.192, -0.192, -0.192, -0.192, -0.192, -0.192, -0.192, -0.192, -0.192, -0.192, -0.192, -0.192, -0.192, -0.192, -0.192, -0.192, -0.192, -0.192, -0.192, -0.192, -0.192, -0.192, -0.192, -0.192, -0.192, -0.192, -0.192, -0.192, -0.192, -0.192, -0.192, -0.192, -0.192, -0.192, -0.192, -0.192, -0.192, -0.192, -0.192, -0.184, -0.176, -0.168, -0.16, -0.152, -0.144, -0.136, -0.128, -0.12, -0.112, -0.104, -0.096, -0.096, -0.096, -0.096, -0.096, -0.096, -0.096, -0.096, -0.096, -0.096, -0.096, -0.096, -0.096, -0.096, -0.096, -0.096]",None,None,['right'],[1.1310852909227833],[0.15661775006446987],up,1.436271540937014,None,165.79019149998203,165.79777795798145,166.0519191250205,166.0419263750082,166.04205150005873,166.0519191250205,,167.05245591700077,,167.0422615420539,pen,1,1,166.0519191250205,167.05245591700077,,,,,,,,,,,,,,,,,,,,,,hard,B,2025-04-05_18h29.17.206,asymmetry_final,2024.2.4,120,2025-04-05 18h29.29.431897 -0400,
21,21,0,1,1,baseline,17,1.7,-0.06,0.0,-0.116,curv,flat_curv,0.0,0.06,pen,rew,input_data/stims/Shape_1.70_0.00.png,input_data/stims/Shape_4.00_2.00.png,input_data/stims/Shape_0.00_2.00.png,up,31.93141712504439,None,None,None,"['right', 'left']","[0.8673553749686107, 1.410190457943827]","[0.2000405410071835, 0.1441622080747038]",up,1.6980537079507485,None,0,0,0,0,0,21,21,17,167.05245591700077,,,,,,,,,167.04283083300106,0.0005572499940171838,167.98476054205094,167.98480262502562,168.01714300003368,169.209709375049,169.20416958304122,169.20448379206937,0.0003274169284850359,170.49649754201528,170.49774245801382,170.565266916994,170.565266916994,170.565266916994,170.565266916994,170.565266916994,170.565266916994,170.565266916994,172.27448554197326,"[-0.116, -0.116, -0.116, -0.116, -0.116, -0.116, -0.116, -0.116, -0.116, -0.116, -0.116, -0.116, -0.116, -0.116, -0.116, -0.116, -0.116, -0.116, -0.116, -0.116, -0.116, -0.116, -0.116, -0.116, -0.116, -0.116, -0.116, -0.116, -0.116, -0.116, -0.116, -0.116, -0.116, -0.116, -0.116, -0.116, -0.116, -0.116, -0.116, -0.116, -0.116, -0.116, -0.116, -0.116, -0.116, -0.116, -0.116, -0.116, -0.116, -0.116, -0.116, -0.116, -0.116, -0.116, -0.116, -0.116, -0.116, -0.116, -0.116, -0.116, -0.116, -0.116, -0.116, -0.116, -0.116, -0.116, -0.116, -0.116, -0.116, -0.116, -0.116, -0.116, -0.116, -0.116, -0.108, -0.1, -0.092, -0.084, -0.076, -0.068, -0.06, -0.052, -0.044, -0.036, -0.028, -0.02, -0.012, -0.004, 0.004, 0.004, 0.004, 0.004, 0.004, 0.004, 0.004, 0.004, 0.004, 0.004, 0.004, 0.004, 0.004, 0.004, 0.004, 0.004, 0.004, 0.004, 0.004, 0.004, 0.004, 0.004, 0.004, 0.004, 0.004, 0.004, 0.004, 0.004, 0.004, 0.004, 0.004, -0.004, -0.012, -0.02, -0.028, -0.036, -0.044, -0.052, -0.06, -0.068, -0.076, -0.084, -0.092, -0.092, -0.092, -0.092, -0.092, -0.092, -0.092, -0.092, -0.092, -0.092, -0.092, -0.092, -0.092, -0.092]",None,None,"['right', 'left']","[0.8673553749686107, 1.410190457943827]","[0.2000405410071835, 0.1441622080747038]",up,1.6980537079507485,None,172.27494737505913,172.28206537500955,172.53542954206932,172.5258863749914,172.52598354197107,172.53542954206932,,173.53612495807465,,173.5251934999833,rew,0,-1,,,172.53542954206932,173.53612495807465,,,,,,,,,,,,,,,,,,,,hard,B,2025-04-05_18h29.17.206,asymmetry_final,2024.2.4,120,2025-04-05 18h29.29.431897 -0400,
22,22,0,1,1,baseline,36,3.7,0.34,4.0,-0.168,flat,curv_flat,0.0,0.34,rew,pen,input_data/stims/Shape_3.70_4.00.png,input_data/stims/Shape_0.00_2.00.png,input_data/stims/Shape_4.00_2.00.png,up,31.93141712504439,None,None,None,['right'],[0.5361533749382943],[0.436094667064026],up,1.3015104579972103,None,0,0,0,0,0,22,22,36,173.53612495807465,,,,,,,,,173.52585433307104,0.0006477918941527605,174.6178225830663,174.6178646250628,174.6501371250488,175.83574883302208,175.82961404207163,175.8298544579884,0.00024266599211841822,177.2717765000416,177.2729661250487,177.33338054199703,177.33338054199703,177.33338054199703,177.33338054199703,177.33338054199703,177.33338054199703,177.33338054199703,178.64292162505444,"[-0.168, -0.168, -0.168, -0.168, -0.168, -0.168, -0.168, -0.168, -0.168, -0.168, -0.168, -0.168, -0.168, -0.168, -0.168, -0.168, -0.168, -0.168, -0.168, -0.168, -0.168, -0.168, -0.168, -0.168, -0.168, -0.168, -0.168, -0.168, -0.168, -0.168, -0.168, -0.168, -0.168, -0.168, -0.168, -0.168, -0.168, -0.168, -0.168, -0.168, -0.168, -0.168, -0.168, -0.168, -0.168, -0.168, -0.168, -0.168, -0.168, -0.168, -0.168, -0.16, -0.152, -0.144, -0.136, -0.128, -0.12, -0.112, -0.104, -0.096, -0.088, -0.08, -0.072, -0.064, -0.056, -0.048, -0.04, -0.032, -0.024, -0.016, -0.008, 0.0, 0.008, 0.016, 0.024, 0.032, 0.04, 0.048, 0.056, 0.064, 0.072, 0.08, 0.088, 0.096, 0.096, 0.096, 0.096, 0.096, 0.096, 0.096, 0.096, 0.096, 0.096, 0.096, 0.096, 0.096, 0.096, 0.096, 0.096, 0.096, 0.096, 0.096, 0.096, 0.096, 0.096, 0.096, 0.096, 0.096, 0.096, 0.096, 0.096, 0.096]",None,None,['right'],[0.5361533749382943],[0.436094667064026],up,1.3015104579972103,None,178.6433360420633,178.6508709579939,178.90248191705905,178.89152879198082,178.89165075006895,178.90248191705905,,179.90245095803402,,179.89274825004395,pen,1,1,178.90248191705905,179.90245095803402,,,,,,,,,,,,,,,,,,,,,,hard,B,2025-04-05_18h29.17.206,asymmetry_final,2024.2.4,120,2025-04-05 18h29.29.431897 -0400,
23,23,0,1,1,baseline,3,0.3,-0.34,0.0,0.152,curv,flat_curv,0.0,0.34,pen,rew,input_data/stims/Shape_0.30_0.00.png,input_data/stims/Shape_4.00_2.00.png,input_data/stims/Shape_0.00_2.00.png,up,31.93141712504439,None,None,None,"['left', 'right', 'right', 'right']","[0.4744814169825986, 0.7803854170488194, 1.272613791981712, 1.4326685830019414]","[0.09998887509573251, 0.15594125003553927, 0.05992550007067621, 0.0955126250628382]",up,1.7319970830576494,None,0,0,0,0,0,23,23,3,179.90245095803402,,,,,,,,,179.8933525000466,0.0005962910363450646,180.8358734169742,180.835915750009,180.8689710830804,182.0520521249855,182.04560779198073,182.04586125002243,0.0002556669060140848,183.5378458329942,183.53919458307792,183.6019448330626,183.6019448330626,183.6019448330626,183.6019448330626,183.6019448330626,183.6019448330626,183.6019448330626,185.33874925004784,"[0.152, 0.152, 0.152, 0.152, 0.152, 0.152, 0.152, 0.152, 0.152, 0.152, 0.152, 0.152, 0.152, 0.152, 0.152, 0.152, 0.152, 0.152, 0.152, 0.152, 0.152, 0.152, 0.152, 0.152, 0.152, 0.152, 0.152, 0.152, 0.152, 0.152, 0.152, 0.152, 0.152, 0.152, 0.152, 0.152, 0.152, 0.152, 0.152, 0.152, 0.152, 0.152, 0.152, 0.144, 0.136, 0.128, 0.12, 0.112, 0.104, 0.096, 0.096, 0.096, 0.096, 0.096, 0.096, 0.096, 0.096, 0.096, 0.096, 0.096, 0.096, 0.096, 0.096, 0.096, 0.104, 0.112, 0.12, 0.128, 0.136, 0.144, 0.152, 0.16, 0.168, 0.176, 0.184, 0.184, 0.184, 0.184, 0.184, 0.184, 0.184, 0.184, 0.184, 0.184, 0.184, 0.184, 0.184, 0.184, 0.184, 0.184, 0.184, 0.184, 0.184, 0.184, 0.184, 0.184, 0.184, 0.184, 0.184, 0.184, 0.184, 0.184, 0.184, 0.192, 0.2, 0.208, 0.216, 0.216, 0.216, 0.216, 0.216, 0.216, 0.216, 0.216, 0.224, 0.232, 0.24, 0.248, 0.256, 0.264, 0.272, 0.272, 0.272, 0.272, 0.272, 0.272, 0.272, 0.272, 0.272, 0.272, 0.272, 0.272, 0.272, 0.272, 0.272, 0.272, 0.272, 0.272]",None,None,"['left', 'right', 'right', 'right']","[0.4744814169825986, 0.7803854170488194, 1.272613791981712, 1.4326685830019414]","[0.09998887509573251, 0.15594125003553927, 0.05992550007067621, 0.0955126250628382]",up,1.7319970830576494,None,185.33923400007188,185.346660542069,185.5938493750291,185.58645708300173,185.5865471670404,185.5938493750291,185.5938493750291,186.6021506669931,186.6021506669931,186.59243095805869,rew,1,3,,,,,,,,,,,,,,,,,,,,,,,,hard,B,2025-04-05_18h29.17.206,asymmetry_final,2024.2.4,120,2025-04-05 18h29.29.431897 -0400,
24,24,0,1,1,baseline,38,3.9,0.38,4.0,0.252,flat,curv_flat,0.0,0.38,rew,pen,input_data/stims/Shape_3.90_4.00.png,input_data/stims/Shape_0.00_2.00.png,input_data/stims/Shape_4.00_2.00.png,up,31.93141712504439,None,None,None,['left'],[0.5499856249662116],[0.4919216660782695],up,1.2144612499978393,None,0,0,0,0,0,24,24,38,186.6021506669931,,,,,,,,,186.59313633304555,0.0006957909790799022,187.5350756670814,187.53512445802335,187.56824016699102,188.76875329203904,188.76223812508397,188.7624831669964,0.0002472089836373925,190.25507891702,190.25626683305018,190.31677595805377,190.31677595805377,190.31677595805377,190.31677595805377,190.31677595805377,190.31677595805377,190.31677595805377,191.54185862501618,"[0.252, 0.252, 0.252, 0.252, 0.252, 0.252, 0.252, 0.252, 0.252, 0.252, 0.252, 0.252, 0.252, 0.252, 0.252, 0.252, 0.252, 0.252, 0.252, 0.252, 0.252, 0.252, 0.252, 0.252, 0.252, 0.252, 0.252, 0.252, 0.252, 0.252, 0.252, 0.252, 0.252, 0.252, 0.252, 0.252, 0.252, 0.252, 0.252, 0.252, 0.252, 0.252, 0.252, 0.252, 0.252, 0.252, 0.252, 0.252, 0.252, 0.252, 0.252, 0.252, 0.252, 0.252, 0.244, 0.236, 0.228, 0.22, 0.212, 0.204, 0.196, 0.188, 0.18, 0.172, 0.164, 0.156, 0.148, 0.14, 0.132, 0.124, 0.116, 0.108, 0.1, 0.092, 0.084, 0.076, 0.068, 0.06, 0.052, 0.044, 0.036, 0.028, 0.02, 0.012, 0.004, -0.004, -0.012, -0.02, -0.028, -0.036, -0.044, -0.052, -0.052, -0.052, -0.052, -0.052, -0.052, -0.052, -0.052, -0.052, -0.052, -0.052, -0.052, -0.052, -0.052, -0.052, -0.052, -0.052, -0.052, -0.052]",None,None,['left'],[0.5499856249662116],[0.4919216660782695],up,1.2144612499978393,None,191.5421832500724,191.54948675003834,191.80208004207816,191.79198841704056,191.79209637502208,191.80208004207816,,192.80944462504704,,192.80313979205675,pen,0,-3,,,,,191.80208004207816,192.80944462504704,,,,,,,,,,,,,,,,,,hard,B,2025-04-05_18h29.17.206,asymmetry_final,2024.2.4,120,2025-04-05 18h29.29.431897 -0400,
25,25,0,1,1,baseline,22,2.3,0.06,4.0,0.008,flat,curv_flat,0.0,0.06,rew,pen,input_data/stims/Shape_2.30_4.00.png,input_data/stims/Shape_0.00_2.00.png,input_data/stims/Shape_4.00_2.00.png,up,31.93141712504439,None,None,None,['right'],[0.5407265410758555],[0.1918830838985741],up,0.9255065000616014,None,0,0,0,0,0,25,25,22,192.80944462504704,,,,,,,,,192.80392583308276,0.0007571249734610319,193.8958253749879,193.8958664169768,193.93472287501208,195.1695642080158,195.16263404197525,195.16286445804872,0.00023858295753598213,196.55489583301824,196.55624795798212,196.62952262500767,196.62952262500767,196.62952262500767,196.62952262500767,196.62952262500767,196.62952262500767,196.62952262500767,197.56765579199418,"[0.008, 0.008, 0.008, 0.008, 0.008, 0.008, 0.008, 0.008, 0.008, 0.008, 0.008, 0.008, 0.008, 0.008, 0.008, 0.008, 0.008, 0.008, 0.008, 0.008, 0.008, 0.008, 0.008, 0.008, 0.008, 0.008, 0.008, 0.008, 0.008, 0.008, 0.008, 0.008, 0.008, 0.008, 0.008, 0.008, 0.008, 0.008, 0.008, 0.008, 0.008, 0.008, 0.008, 0.008, 0.008, 0.008, 0.008, 0.008, 0.016, 0.024, 0.032, 0.04, 0.048, 0.056, 0.064, 0.072, 0.08, 0.088, 0.096, 0.104, 0.112, 0.12, 0.128, 0.136, 0.136, 0.136, 0.136, 0.136, 0.136, 0.136, 0.136, 0.136, 0.136, 0.136, 0.136, 0.136, 0.136, 0.136, 0.136, 0.136, 0.136, 0.136]",None,None,['right'],[0.5407265410758555],[0.1918830838985741],up,0.9255065000616014,None,197.56804866704624,197.57580262504052,197.82693845801987,197.8197693330003,197.8198875830276,197.82693845801987,,198.82573741697706,,198.81966520799324,pen,1,1,197.82693845801987,198.82573741697706,,,,,,,,,,,,,,,,,,,,,,hard,B,2025-04-05_18h29.17.206,asymmetry_final,2024.2.4,120,2025-04-05 18h29.29.431897 -0400,
26,26,0,1,1,baseline,28,2.9,0.18,4.0,-0.044,flat,curv_flat,0.0,0.18,rew,pen,input_data/stims/Shape_2.90_4.00.png,input_data/stims/Shape_0.00_2.00.png,input_data/stims/Shape_4.00_2.00.png,up,31.93141712504439,None,None,None,['right'],[0.5118141249986365],[0.4279583339812234],up,1.1744493750156835,None,0,0,0,0,0,26,26,28,198.82573741697706,,,,,,,,,198.82031154201832,0.0006477920105680823,199.81222866708413,199.81226887507364,199.8453679580707,201.025293166982,201.01984120800626,201.02015033306088,0.00032008299604058266,202.5120355420513,202.513216958032,202.574977625045,202.574977625045,202.574977625045,202.574977625045,202.574977625045,202.574977625045,202.574977625045,203.76040545804426,"[-0.044, -0.044, -0.044, -0.044, -0.044, -0.044, -0.044, -0.044, -0.044, -0.044, -0.044, -0.044, -0.044, -0.044, -0.044, -0.044, -0.044, -0.044, -0.044, -0.044, -0.044, -0.044, -0.044, -0.044, -0.044, -0.044, -0.044, -0.044, -0.044, -0.044, -0.044, -0.044, -0.044, -0.044, -0.044, -0.044, -0.044, -0.044, -0.044, -0.044, -0.044, -0.044, -0.044, -0.044, -0.044, -0.044, -0.044, -0.044, -0.044, -0.036, -0.028, -0.02, -0.012, -0.004, 0.004, 0.012, 0.02, 0.028, 0.036, 0.044, 0.052, 0.06, 0.068, 0.076, 0.084, 0.092, 0.1, 0.108, 0.116, 0.124, 0.132, 0.14, 0.148, 0.156, 0.164, 0.172, 0.18, 0.18, 0.18, 0.18, 0.18, 0.18, 0.18, 0.18, 0.18, 0.18, 0.18, 0.18, 0.18, 0.18, 0.18, 0.18, 0.18, 0.18, 0.18, 0.18, 0.18, 0.18, 0.18, 0.18, 0.18]",None,None,['right'],[0.5118141249986365],[0.4279583339812234],up,1.1744493750156835,None,203.76071229204535,203.768969417084,204.019020000007,204.00975533307064,204.00985795806628,204.019020000007,,205.02563091705088,,205.01965087500867,pen,1,1,204.019020000007,205.02563091705088,,,,,,,,,,,,,,,,,,,,,,hard,B,2025-04-05_18h29.17.206,asymmetry_final,2024.2.4,120,2025-04-05 18h29.29.431897 -0400,
27,27,0,1,1,baseline,1,0.1,-0.38,0.0,-0.168,curv,flat_curv,0.0,0.38,pen,rew,input_data/stims/Shape_0.10_0.00.png,input_data/stims/Shape_4.00_2.00.png,input_data/stims/Shape_0.00_2.00.png,up,31.93141712504439,None,None,None,['right'],[0.5615002079866827],[0.5478871250525117],up,1.3030935829738155,None,0,0,0,0,0,27,27,1,205.02563091705088,,,,,,,,,205.02030650002416,0.000643625040538609,206.11217924999073,206.11222070804797,206.1447868749965,207.24300487502478,207.23742525000125,207.23771545803174,0.000284082954749465,208.62971937505063,208.63090870797168,208.69381533307023,208.69381533307023,208.69381533307023,208.69381533307023,208.69381533307023,208.69381533307023,208.69381533307023,210.00034525000956,"[-0.168, -0.168, -0.168, -0.168, -0.168, -0.168, -0.168, -0.168, -0.168, -0.168, -0.168, -0.168, -0.168, -0.168, -0.168, -0.168, -0.168, -0.168, -0.168, -0.168, -0.168, -0.168, -0.168, -0.168, -0.168, -0.168, -0.168, -0.168, -0.168, -0.168, -0.168, -0.168, -0.168, -0.168, -0.168, -0.168, -0.168, -0.168, -0.168, -0.168, -0.168, -0.168, -0.168, -0.168, -0.168, -0.168, -0.168, -0.168, -0.168, -0.168, -0.168, -0.168, -0.16, -0.152, -0.144, -0.136, -0.128, -0.12, -0.112, -0.104, -0.096, -0.088, -0.08, -0.072, -0.064, -0.056, -0.048, -0.04, -0.032, -0.024, -0.016, -0.008, 0.0, 0.008, 0.016, 0.024, 0.032, 0.04, 0.048, 0.056, 0.064, 0.072, 0.08, 0.088, 0.096, 0.104, 0.112, 0.12, 0.128, 0.136, 0.144, 0.152, 0.16, 0.168, 0.176, 0.176, 0.176, 0.176, 0.176, 0.176, 0.176, 0.176, 0.176, 0.176, 0.176, 0.176, 0.176, 0.176, 0.176, 0.176, 0.176]",None,None,['right'],[0.5615002079866827],[0.5478871250525117],up,1.3030935829738155,None,210.0007601249963,210.008413417032,210.26009900006466,210.25330708303954,210.25342808302958,210.26009900006466,210.26009900006466,211.25845154200215,211.25845154200215,211.2530387500301,rew,1,3,,,,,,,,,,,,,,,,,,,,,,,,hard,B,2025-04-05_18h29.17.206,asymmetry_final,2024.2.4,120,2025-04-05 18h29.29.431897 -0400,
28,28,0,1,1,baseline,5,0.5,-0.3,0.0,-0.128,curv,flat_curv,0.0,0.3,pen,rew,input_data/stims/Shape_0.50_0.00.png,input_data/stims/Shape_4.00_2.00.png,input_data/stims/Shape_0.00_2.00.png,up,31.93141712504439,None,None,None,['right'],[0.4940629160264507],[0.4440677089150995],up,1.2558410409837961,None,0,0,0,0,0,28,28,5,211.25845154200215,,,,,,,,,211.25366004207171,0.0006114169955253601,212.34560341702309,212.3456448330544,212.3789113330422,213.63600037503056,213.62443416705355,213.62468770798296,0.0002515829401090741,215.06663804198615,215.06782212504186,215.1277074579848,215.1277074579848,215.1277074579848,215.1277074579848,215.1277074579848,215.1277074579848,215.1277074579848,216.38845924998168,"[-0.128, -0.128, -0.128, -0.128, -0.128, -0.128, -0.128, -0.128, -0.128, -0.128, -0.128, -0.128, -0.128, -0.128, -0.128, -0.128, -0.128, -0.128, -0.128, -0.128, -0.128, -0.128, -0.128, -0.128, -0.128, -0.128, -0.128, -0.128, -0.128, -0.128, -0.128, -0.128, -0.128, -0.128, -0.128, -0.128, -0.128, -0.128, -0.128, -0.128, -0.128, -0.128, -0.128, -0.128, -0.128, -0.128, -0.12, -0.112, -0.104, -0.096, -0.088, -0.08, -0.072, -0.064, -0.056, -0.048, -0.04, -0.032, -0.024, -0.016, -0.008, 0.0, 0.008, 0.016, 0.024, 0.032, 0.04, 0.048, 0.056, 0.064, 0.072, 0.08, 0.088, 0.096, 0.104, 0.112, 0.12, 0.128, 0.136, 0.144, 0.144, 0.144, 0.144, 0.144, 0.144, 0.144, 0.144, 0.144, 0.144, 0.144, 0.144, 0.144, 0.144, 0.144, 0.144, 0.144, 0.144, 0.144, 0.144, 0.144, 0.144, 0.144, 0.144, 0.144, 0.144, 0.144, 0.144, 0.144, 0.144, 0.144]",None,None,['right'],[0.4940629160264507],[0.4440677089150995],up,1.2558410409837961,None,216.38883783307392,216.39625662507024,216.64388083305676,216.63689883297775,216.63699100003578,216.64388083305676,216.64388083305676,217.6417590000201,217.6417590000201,217.63619187497534,rew,1,3,,,,,,,,,,,,,,,,,,,,,,,,hard,B,2025-04-05_18h29.17.206,asymmetry_final,2024.2.4,120,2025-04-05 18h29.29.431897 -0400,
29,29,0,1,1,baseline,30,3.1,0.22,4.0,0.312,flat,curv_flat,0.0,0.22,rew,pen,input_data/stims/Shape_3.10_4.00.png,input_data/stims/Shape_0.00_2.00.png,input_data/stims/Shape_4.00_2.00.png,up,31.93141712504439,None,None,None,None,,,up,0.6807000000262633,None,0,0,0,0,0,29,29,30,217.6417590000201,,,,,,,,,217.63684408308472,0.0006320419488474727,218.52879850007594,218.52883837500121,218.56168429204263,219.7191974580055,219.71235525002703,219.7126320420066,0.00028962502256035805,221.20457325002644,221.20575500000268,221.26842183305416,221.26842183305416,221.26842183305416,221.26842183305416,221.26842183305416,221.26842183305416,221.26842183305416,221.9556060830364,"[0.312, 0.312, 0.312, 0.312, 0.312, 0.312, 0.312, 0.312, 0.312, 0.312, 0.312, 0.312, 0.312, 0.312, 0.312, 0.312, 0.312, 0.312, 0.312, 0.312, 0.312, 0.312, 0.312, 0.312, 0.312, 0.312, 0.312, 0.312, 0.312, 0.312, 0.312, 0.312, 0.312, 0.312, 0.312, 0.312, 0.312, 0.312, 0.312, 0.312, 0.312, 0.312, 0.312, 0.312, 0.312, 0.312, 0.312, 0.312, 0.312, 0.312, 0.312, 0.312, 0.312, 0.312, 0.312, 0.312, 0.312, 0.312, 0.312, 0.312, 0.312]",None,None,None,,,up,0.6807000000262633,None,221.95589412504341,221.96378170803655,222.21785045799334,222.2036243750481,222.2102559170453,222.21785045799334,,223.21975204197224,,223.20892170805018,pen,0,-3,,,,,222.21785045799334,223.21975204197224,,,,,,,,,,,,,,,,,,hard,B,2025-04-05_18h29.17.206,asymmetry_final,2024.2.4,120,2025-04-05 18h29.29.431897 -0400,
30,30,0,1,1,baseline,27,2.7,0.14,4.0,0.324,flat,flat_curv,0.0,-0.14,rew,pen,input_data/stims/Shape_2.70_4.00.png,input_data/stims/Shape_4.00_2.00.png,input_data/stims/Shape_0.00_2.00.png,up,31.93141712504439,None,None,None,['left'],[0.582081958069466],[0.6479340830119327],up,1.433195250108838,None,0,0,0,0,0,30,30,27,223.21975204197224,,,,,,,,,223.20949204207864,0.0005560409044846892,224.1514194579795,224.15146120800637,224.18396212498192,225.35211070801597,225.34681004204322,225.34707450005226,0.00027841702103614807,226.6389884580858,226.64017691707704,226.70251254201867,226.70251254201867,226.70251254201867,226.70251254201867,226.70251254201867,226.70251254201867,226.70251254201867,228.14071679208428,"[0.324, 0.324, 0.324, 0.324, 0.324, 0.324, 0.324, 0.324, 0.324, 0.324, 0.324, 0.324, 0.324, 0.324, 0.324, 0.324, 0.324, 0.324, 0.324, 0.324, 0.324, 0.324, 0.324, 0.324, 0.324, 0.324, 0.324, 0.324, 0.324, 0.324, 0.324, 0.324, 0.324, 0.324, 0.324, 0.324, 0.324, 0.324, 0.324, 0.324, 0.324, 0.324, 0.324, 0.324, 0.324, 0.324, 0.324, 0.324, 0.316, 0.308, 0.3, 0.292, 0.284, 0.276, 0.268, 0.26, 0.252, 0.244, 0.236, 0.228, 0.22, 0.212, 0.204, 0.196, 0.188, 0.18, 0.172, 0.164, 0.156, 0.148, 0.14, 0.132, 0.124, 0.116, 0.108, 0.1, 0.092, 0.084, 0.076, 0.068, 0.06, 0.052, 0.044, 0.036, 0.028, 0.02, 0.012, 0.004, -0.004, -0.012, -0.02, -0.028, -0.036, -0.044, -0.052, -0.06, -0.068, -0.076, -0.084, -0.092, -0.1, -0.108, -0.116, -0.116, -0.116, -0.116, -0.116, -0.116, -0.116, -0.116, -0.116, -0.116, -0.116, -0.116, -0.116, -0.116, -0.116, -0.116, -0.116, -0.116, -0.116, -0.116]",None,None,['left'],[0.582081958069466],[0.6479340830119327],up,1.433195250108838,None,228.14112237503286,228.14897916698828,228.4024907500716,228.39173416700214,228.39308566704858,228.4024907500716,,229.40287012502085,,229.39265662501566,pen,1,1,228.4024907500716,229.40287012502085,,,,,,,,,,,,,,,,,,,,,,hard,B,2025-04-05_18h29.17.206,asymmetry_final,2024.2.4,120,2025-04-05 18h29.29.431897 -0400,
31,31,0,1,1,baseline,37,3.7,0.34,4.0,-0.392,flat,flat_curv,0.0,-0.34,rew,pen,input_data/stims/Shape_3.70_4.00.png,input_data/stims/Shape_4.00_2.00.png,input_data/stims/Shape_0.00_2.00.png,up,31.93141712504439,None,None,None,['right'],[0.6678048330359161],[0.3438775419490412],up,1.1795300000812858,None,0,0,0,0,0,31,31,37,229.40287012502085,,,,,,,,,229.39325320802163,0.00058320804964751,230.28521866700612,230.285260417033,230.31844141706824,231.5382840000093,231.5316942500649,231.53193045803346,0.00024208298418670893,233.02389591699466,233.0250810420839,233.08510250004474,233.08510250004474,233.08510250004474,233.08510250004474,233.08510250004474,233.08510250004474,233.08510250004474,234.27274804201443,"[-0.392, -0.392, -0.392, -0.392, -0.392, -0.392, -0.392, -0.392, -0.392, -0.392, -0.392, -0.392, -0.392, -0.392, -0.392, -0.392, -0.392, -0.392, -0.392, -0.392, -0.392, -0.392, -0.392, -0.392, -0.392, -0.392, -0.392, -0.392, -0.392, -0.392, -0.392, -0.392, -0.392, -0.392, -0.392, -0.392, -0.392, -0.392, -0.392, -0.392, -0.392, -0.392, -0.392, -0.392, -0.392, -0.392, -0.392, -0.392, -0.392, -0.392, -0.392, -0.392, -0.392, -0.392, -0.392, -0.392, -0.392, -0.392, -0.392, -0.384, -0.376, -0.368, -0.36, -0.352, -0.344, -0.336, -0.328, -0.32, -0.312, -0.304, -0.296, -0.288, -0.28, -0.272, -0.264, -0.256, -0.248, -0.24, -0.232, -0.224, -0.216, -0.208, -0.2, -0.192, -0.184, -0.176, -0.176, -0.176, -0.176, -0.176, -0.176, -0.176, -0.176, -0.176, -0.176, -0.176, -0.176, -0.176, -0.176, -0.176, -0.176]",None,None,['right'],[0.6678048330359161],[0.3438775419490412],up,1.1795300000812858,None,234.27312445803545,234.28049391706008,234.52725608297624,234.52037395804655,234.52048733306583,234.52725608297624,,235.5273959580809,,235.52044941706117,pen,1,1,234.52725608297624,235.5273959580809,,,,,,,,,,,,,,,,,,,,,,hard,B,2025-04-05_18h29.17.206,asymmetry_final,2024.2.4,120,2025-04-05 18h29.29.431897 -0400,
32,32,0,1,1,baseline,34,3.5,0.3,4.0,0.356,flat,curv_flat,0.0,0.3,rew,pen,input_data/stims/Shape_3.50_4.00.png,input_data/stims/Shape_0.00_2.00.png,input_data/stims/Shape_4.00_2.00.png,up,31.93141712504439,None,None,None,['left'],[0.7639343339251354],[0.4518606250640005],up,1.4773336669895798,None,0,0,0,0,0,32,32,34,235.5273959580809,,,,,,,,,235.5211259999778,0.0006635000463575125,236.56307587504853,236.56311783299316,236.59422004199587,237.83607862505596,237.8282308750786,237.82858287508134,0.0003563750069588423,239.22062024998013,239.22195170808118,239.2862976670731,239.2862976670731,239.2862976670731,239.2862976670731,239.2862976670731,239.2862976670731,239.2862976670731,240.78054783307016,"[0.356, 0.356, 0.356, 0.356, 0.356, 0.356, 0.356, 0.356, 0.356, 0.356, 0.356, 0.356, 0.356, 0.356, 0.356, 0.356, 0.356, 0.356, 0.356, 0.356, 0.356, 0.356, 0.356, 0.356, 0.356, 0.356, 0.356, 0.356, 0.356, 0.356, 0.356, 0.356, 0.356, 0.356, 0.356, 0.356, 0.356, 0.356, 0.356, 0.356, 0.356, 0.356, 0.356, 0.356, 0.356, 0.356, 0.356, 0.356, 0.356, 0.356, 0.356, 0.356, 0.356, 0.356, 0.356, 0.356, 0.356, 0.356, 0.356, 0.356, 0.356, 0.356, 0.356, 0.348, 0.34, 0.332, 0.324, 0.316, 0.308, 0.3, 0.292, 0.284, 0.276, 0.268, 0.26, 0.252, 0.244, 0.236, 0.228, 0.22, 0.212, 0.204, 0.196, 0.188, 0.18, 0.172, 0.164, 0.156, 0.148, 0.14, 0.132, 0.124, 0.116, 0.108, 0.1, 0.092, 0.084, 0.084, 0.084, 0.084, 0.084, 0.084, 0.084, 0.084, 0.084, 0.084, 0.084, 0.084, 0.084, 0.084, 0.084, 0.084, 0.084, 0.084, 0.084, 0.084, 0.084, 0.084, 0.084, 0.084]",None,None,['left'],[0.7639343339251354],[0.4518606250640005],up,1.4773336669895798,None,240.78114958305378,240.80323729198426,241.05317991704214,241.0430645829765,241.0431732920697,241.05317991704214,,242.05924533307552,,242.05384075001348,pen,1,1,241.05317991704214,242.05924533307552,,,,,,,,,,,,,,,,,,,,,,hard,B,2025-04-05_18h29.17.206,asymmetry_final,2024.2.4,120,2025-04-05 18h29.29.431897 -0400,
33,33,0,1,1,baseline,19,1.9,-0.02,0.0,0.08,curv,flat_curv,0.0,0.02,pen,rew,input_data/stims/Shape_1.90_0.00.png,input_data/stims/Shape_4.00_2.00.png,input_data/stims/Shape_0.00_2.00.png,up,31.93141712504439,None,None,None,"['left', 'left']","[0.5067864999873564, 0.716423042002134]","[0.09610766707919538, 0.12788416596595198]",up,1.4000806669937447,None,0,0,0,0,0,33,33,19,242.05924533307552,,,,,,,,,242.05429066705983,0.00044112501200288534,243.04614179197233,243.04618462501094,243.08076504198834,244.25363529205788,244.2428806250682,244.24321416707244,0.00030858302488923073,245.5352737919893,245.53670141706243,245.60119262500666,245.60119262500666,245.60119262500666,245.60119262500666,245.60119262500666,245.60119262500666,245.60119262500666,247.01624587504193,"[0.08, 0.08, 0.08, 0.08, 0.08, 0.08, 0.08, 0.08, 0.08, 0.08, 0.08, 0.08, 0.08, 0.08, 0.08, 0.08, 0.08, 0.08, 0.08, 0.08, 0.08, 0.08, 0.08, 0.08, 0.08, 0.08, 0.08, 0.08, 0.08, 0.08, 0.08, 0.08, 0.08, 0.08, 0.08, 0.08, 0.08, 0.08, 0.08, 0.08, 0.08, 0.08, 0.08, 0.08, 0.08, 0.08, 0.08, 0.08, 0.08, 0.072, 0.064, 0.056, 0.048, 0.04, 0.032, 0.024, 0.024, 0.024, 0.024, 0.024, 0.024, 0.024, 0.024, 0.024, 0.024, 0.016, 0.008, 0.0, -0.008, -0.016, -0.024, -0.032, -0.04, -0.048, -0.056, -0.056, -0.056, -0.056, -0.056, -0.056, -0.056, -0.056, -0.056, -0.056, -0.056, -0.056, -0.056, -0.056, -0.056, -0.056, -0.056, -0.056, -0.056, -0.056, -0.056, -0.056, -0.056, -0.056, -0.056, -0.056, -0.056, -0.056, -0.056, -0.056, -0.056, -0.056, -0.056, -0.056, -0.056, -0.056, -0.056, -0.056, -0.056, -0.056, -0.056, -0.056, -0.056, -0.056, -0.056, -0.056, -0.056, -0.056, -0.056, -0.056, -0.056]",None,None,"['left', 'left']","[0.5067864999873564, 0.716423042002134]","[0.09610766707919538, 0.12788416596595198]",up,1.4000806669937447,None,247.01665158302058,247.0221726669697,247.28652358299587,247.2755321250297,247.2756898329826,247.28652358299587,,248.2868329579942,,248.27664950001054,rew,0,-1,,,247.28652358299587,248.2868329579942,,,,,,,,,,,,,,,,,,,,hard,B,2025-04-05_18h29.17.206,asymmetry_final,2024.2.4,120,2025-04-05 18h29.29.431897 -0400,
34,34,0,1,1,baseline,29,2.9,0.18,4.0,-0.104,flat,flat_curv,0.0,-0.18,rew,pen,input_data/stims/Shape_2.90_4.00.png,input_data/stims/Shape_4.00_2.00.png,input_data/stims/Shape_0.00_2.00.png,up,31.93141712504439,None,None,None,['right'],[0.9385187919251621],[0.1479975830297917],up,1.2417337090009823,None,0,0,0,0,0,34,34,29,248.2868329579942,,,,,,,,,248.2772665830562,0.000606333022005856,249.36923791700974,249.36928099999204,249.402094625053,250.6366599580506,250.61469579197,250.6149405830074,0.000260957982391119,252.1069101250032,252.10809533298016,252.17296654207166,252.17296654207166,252.17296654207166,252.17296654207166,252.17296654207166,252.17296654207166,252.17296654207166,253.42198133305646,"[-0.104, -0.104, -0.104, -0.104, -0.104, -0.104, -0.104, -0.104, -0.104, -0.104, -0.104, -0.104, -0.104, -0.104, -0.104, -0.104, -0.104, -0.104, -0.104, -0.104, -0.104, -0.104, -0.104, -0.104, -0.104, -0.104, -0.104, -0.104, -0.104, -0.104, -0.104, -0.104, -0.104, -0.104, -0.104, -0.104, -0.104, -0.104, -0.104, -0.104, -0.104, -0.104, -0.104, -0.104, -0.104, -0.104, -0.104, -0.104, -0.104, -0.104, -0.104, -0.104, -0.104, -0.104, -0.104, -0.104, -0.104, -0.104, -0.104, -0.104, -0.104, -0.104, -0.104, -0.104, -0.104, -0.104, -0.104, -0.104, -0.104, -0.104, -0.104, -0.104, -0.104, -0.104, -0.104, -0.104, -0.104, -0.104, -0.104, -0.104, -0.104, -0.104, -0.104, -0.104, -0.104, -0.096, -0.088, -0.08, -0.072, -0.064, -0.056, -0.048, -0.04, -0.032, -0.024, -0.024, -0.024, -0.024, -0.024, -0.024, -0.024, -0.024, -0.024, -0.024, -0.024, -0.024]",None,None,['right'],[0.9385187919251621],[0.1479975830297917],up,1.2417337090009823,None,253.4224858750822,253.43654645804781,253.68673704203684,253.67636525002308,253.67645762499887,253.68673704203684,,254.6868303330848,,254.67704541701823,pen,1,1,253.68673704203684,254.6868303330848,,,,,,,,,,,,,,,,,,,,,,hard,B,2025-04-05_18h29.17.206,asymmetry_final,2024.2.4,120,2025-04-05 18h29.29.431897 -0400,
35,35,0,1,1,baseline,8,0.9,-0.22,0.0,-0.036,curv,curv_flat,0.0,-0.22,pen,rew,input_data/stims/Shape_0.90_0.00.png,input_data/stims/Shape_0.00_2.00.png,input_data/stims/Shape_4.00_2.00.png,up,31.93141712504439,None,None,None,None,,,up,0.8604043330997229,None,0,0,0,0,0,35,35,8,254.6868303330848,,,,,,,,,254.67778037500102,0.0007162499241530895,255.61971608304884,255.61977391701657,255.65326287504286,256.8202950829873,256.8121265419759,256.81249595806,0.0003950829850509763,258.25450054206885,258.2556634580251,258.3160125829745,258.3160125829745,258.3160125829745,258.3160125829745,258.3160125829745,258.3160125829745,258.3160125829745,259.18630733306054,"[-0.036, -0.036, -0.036, -0.036, -0.036, -0.036, -0.036, -0.036, -0.036, -0.036, -0.036, -0.036, -0.036, -0.036, -0.036, -0.036, -0.036, -0.036, -0.036, -0.036, -0.036, -0.036, -0.036, -0.036, -0.036, -0.036, -0.036, -0.036, -0.036, -0.036, -0.036, -0.036, -0.036, -0.036, -0.036, -0.036, -0.036, -0.036, -0.036, -0.036, -0.036, -0.036, -0.036, -0.036, -0.036, -0.036, -0.036, -0.036, -0.036, -0.036, -0.036, -0.036, -0.036, -0.036, -0.036, -0.036, -0.036, -0.036, -0.036, -0.036, -0.036, -0.036, -0.036, -0.036, -0.036, -0.036, -0.036, -0.036, -0.036, -0.036, -0.036, -0.036, -0.036, -0.036, -0.036, -0.036, -0.036, -0.036, -0.036, -0.036, -0.036]",None,None,None,,,up,0.8604043330997229,None,259.18672262504697,259.1950295420829,259.45291695802007,259.4376397919841,259.4454118750291,259.45291695802007,,260.45331787504256,,260.4424550830154,rew,0,-1,,,259.45291695802007,260.45331787504256,,,,,,,,,,,,,,,,,,,,hard,B,2025-04-05_18h29.17.206,asymmetry_final,2024.2.4,120,2025-04-05 18h29.29.431897 -0400,
36,36,0,1,1,baseline,39,3.9,0.38,4.0,0.168,flat,flat_curv,0.0,-0.38,rew,pen,input_data/stims/Shape_3.90_4.00.png,input_data/stims/Shape_4.00_2.00.png,input_data/stims/Shape_0.00_2.00.png,up,31.93141712504439,None,None,None,['left'],[0.67852475005202],[0.4559821248985827],up,1.2889603750081733,None,0,0,0,0,0,36,36,39,260.45331787504256,,,,,,,,,260.44316000002436,0.000688791973516345,261.3850855830824,261.38512679201085,261.4190299169859,262.61997266707476,262.61283083306625,262.6131153330207,0.0002850421005859971,264.05512412497774,264.0565451249713,264.12566983303986,264.12566983303986,264.12566983303986,264.12566983303986,264.12566983303986,264.12566983303986,264.12566983303986,265.4177578750532,"[0.168, 0.168, 0.168, 0.168, 0.168, 0.168, 0.168, 0.168, 0.168, 0.168, 0.168, 0.168, 0.168, 0.168, 0.168, 0.168, 0.168, 0.168, 0.168, 0.168, 0.168, 0.168, 0.168, 0.168, 0.168, 0.168, 0.168, 0.168, 0.168, 0.168, 0.168, 0.168, 0.168, 0.168, 0.168, 0.168, 0.168, 0.168, 0.168, 0.168, 0.168, 0.168, 0.168, 0.168, 0.168, 0.168, 0.168, 0.168, 0.168, 0.168, 0.168, 0.168, 0.168, 0.168, 0.168, 0.168, 0.168, 0.168, 0.168, 0.168, 0.16, 0.152, 0.144, 0.136, 0.128, 0.12, 0.112, 0.104, 0.096, 0.088, 0.08, 0.072, 0.064, 0.056, 0.048, 0.04, 0.032, 0.024, 0.016, 0.008, 0.0, -0.008, -0.016, -0.024, -0.032, -0.04, -0.048, -0.056, -0.064, -0.072, -0.08, -0.088, -0.088, -0.088, -0.088, -0.088, -0.088, -0.088, -0.088, -0.088, -0.088, -0.088, -0.088, -0.088, -0.088]",None,None,['left'],[0.67852475005202],[0.4559821248985827],up,1.2889603750081733,None,265.4181630000239,265.42512937507126,265.6794033329934,265.67084220808465,265.67250750004314,265.6794033329934,,266.67700825002976,,266.67069908301346,pen,1,1,265.6794033329934,266.67700825002976,,,,,,,,,,,,,,,,,,,,,,hard,B,2025-04-05_18h29.17.206,asymmetry_final,2024.2.4,120,2025-04-05 18h29.29.431897 -0400,
37,37,0,1,1,baseline,31,3.1,0.22,4.0,0.124,flat,flat_curv,0.0,-0.22,rew,pen,input_data/stims/Shape_3.10_4.00.png,input_data/stims/Shape_4.00_2.00.png,input_data/stims/Shape_0.00_2.00.png,up,31.93141712504439,None,None,None,['left'],[0.46635429200250655],[0.5200569579610601],up,1.1040605829330161,None,0,0,0,0,0,37,37,31,266.67700825002976,,,,,,,,,266.67145137500484,0.0007389580132439733,267.76340129203163,267.76344362506643,267.79823012498673,268.9864727500826,268.979883208056,268.98013058304787,0.0002644580090418458,270.27201041707303,270.27320566703565,270.33662512502633,270.33662512502633,270.33662512502633,270.33662512502633,270.33662512502633,270.33662512502633,270.33662512502633,271.4459482920356,"[0.124, 0.124, 0.124, 0.124, 0.124, 0.124, 0.124, 0.124, 0.124, 0.124, 0.124, 0.124, 0.124, 0.124, 0.124, 0.124, 0.124, 0.124, 0.124, 0.124, 0.124, 0.124, 0.124, 0.124, 0.124, 0.124, 0.124, 0.124, 0.124, 0.124, 0.124, 0.124, 0.124, 0.124, 0.124, 0.124, 0.124, 0.124, 0.124, 0.124, 0.116, 0.108, 0.1, 0.092, 0.084, 0.076, 0.068, 0.06, 0.052, 0.044, 0.036, 0.028, 0.02, 0.012, 0.004, -0.004, -0.012, -0.02, -0.028, -0.036, -0.044, -0.052, -0.06, -0.068, -0.076, -0.084, -0.092, -0.1, -0.108, -0.116, -0.124, -0.132, -0.14, -0.148, -0.156, -0.164, -0.172, -0.18, -0.188, -0.196, -0.204, -0.204, -0.204, -0.204, -0.204, -0.204, -0.204, -0.204, -0.204, -0.204, -0.204, -0.204]",None,None,['left'],[0.46635429200250655],[0.5200569579610601],up,1.1040605829330161,None,271.4462497920031,271.4531994169811,271.7032696669921,271.69277812505607,271.69288379198406,271.7032696669921,,272.7036087079905,,272.69512854202185,pen,1,1,271.7032696669921,272.7036087079905,,,,,,,,,,,,,,,,,,,,,,hard,B,2025-04-05_18h29.17.206,asymmetry_final,2024.2.4,120,2025-04-05 18h29.29.431897 -0400,
38,38,0,1,1,baseline,9,0.9,-0.22,0.0,-0.208,curv,flat_curv,0.0,0.22,pen,rew,input_data/stims/Shape_0.90_0.00.png,input_data/stims/Shape_4.00_2.00.png,input_data/stims/Shape_0.00_2.00.png,up,31.93141712504439,None,None,None,"['right', 'right']","[0.6273731249384582, 1.2861143329646438]","[0.3999796250136569, 0.2000814590137452]",up,1.673858750029467,None,0,0,0,0,0,38,38,9,272.7036087079905,,,,,,,,,272.6958556249738,0.0007050419226288795,273.7377506670309,273.73779820802156,273.77042762504425,274.97361937502865,274.9667315420229,274.9669898330467,0.0002651249524205923,276.4089175830595,276.4101083329879,276.47523554204963,276.47523554204963,276.47523554204963,276.47523554204963,276.47523554204963,276.47523554204963,276.47523554204963,278.1566157920752,"[-0.208, -0.208, -0.208, -0.208, -0.208, -0.208, -0.208, -0.208, -0.208, -0.208, -0.208, -0.208, -0.208, -0.208, -0.208, -0.208, -0.208, -0.208, -0.208, -0.208, -0.208, -0.208, -0.208, -0.208, -0.208, -0.208, -0.208, -0.208, -0.208, -0.208, -0.208, -0.208, -0.208, -0.208, -0.208, -0.208, -0.208, -0.208, -0.208, -0.208, -0.208, -0.208, -0.208, -0.208, -0.208, -0.208, -0.208, -0.208, -0.208, -0.208, -0.208, -0.208, -0.208, -0.208, -0.208, -0.208, -0.208, -0.2, -0.192, -0.184, -0.176, -0.168, -0.16, -0.152, -0.144, -0.136, -0.128, -0.12, -0.112, -0.104, -0.096, -0.088, -0.08, -0.072, -0.064, -0.056, -0.048, -0.04, -0.032, -0.024, -0.016, -0.008, -0.008, -0.008, -0.008, -0.008, -0.008, -0.008, -0.008, -0.008, -0.008, -0.008, -0.008, -0.008, -0.008, -0.008, -0.008, -0.008, -0.008, -0.008, -0.008, -0.008, -0.008, -0.008, 0.0, 0.008, 0.016, 0.024, 0.032, 0.04, 0.048, 0.056, 0.064, 0.072, 0.08, 0.088, 0.096, 0.104, 0.112, 0.112, 0.112, 0.112, 0.112, 0.112, 0.112, 0.112, 0.112, 0.112, 0.112, 0.112, 0.112, 0.112, 0.112]",None,None,"['right', 'right']","[0.6273731249384582, 1.2861143329646438]","[0.3999796250136569, 0.2000814590137452]",up,1.673858750029467,None,278.15715529199224,278.164831125061,278.41177204204723,278.4037935420638,278.4039074580651,278.41177204204723,278.41177204204723,279.4107592920773,279.4107592920773,279.40412866708357,rew,1,3,,,,,,,,,,,,,,,,,,,,,,,,hard,B,2025-04-05_18h29.17.206,asymmetry_final,2024.2.4,120,2025-04-05 18h29.29.431897 -0400,
39,39,0,1,1,baseline,13,1.3,-0.14,0.0,-0.308,curv,flat_curv,0.0,0.14,pen,rew,input_data/stims/Shape_1.30_0.00.png,input_data/stims/Shape_4.00_2.00.png,input_data/stims/Shape_0.00_2.00.png,up,31.93141712504439,None,None,None,['right'],[0.47491775010712445],[1.0685379588976502],up,1.645394292077981,None,0,0,0,0,0,39,39,13,279.4107592920773,,,,,,,,,279.4047489169752,0.0006104579661041498,280.3466575000202,280.34670087497216,280.3798680000473,281.57714754203334,281.5709930000594,281.57121341698803,0.00022729195188730955,282.8631489999825,282.8643201669911,282.9259620420635,282.9259620420635,282.9259620420635,282.9259620420635,282.9259620420635,282.9259620420635,282.9259620420635,284.57871450006496,"[-0.308, -0.308, -0.308, -0.308, -0.308, -0.308, -0.308, -0.308, -0.308, -0.308, -0.308, -0.308, -0.308, -0.308, -0.308, -0.308, -0.308, -0.308, -0.308, -0.308, -0.308, -0.308, -0.308, -0.308, -0.308, -0.308, -0.308, -0.308, -0.308, -0.308, -0.308, -0.308, -0.308, -0.308, -0.308, -0.308, -0.308, -0.308, -0.308, -0.308, -0.308, -0.308, -0.308, -0.308, -0.3, -0.292, -0.284, -0.276, -0.268, -0.26, -0.252, -0.244, -0.236, -0.228, -0.22, -0.212, -0.204, -0.196, -0.188, -0.18, -0.172, -0.164, -0.156, -0.148, -0.14, -0.132, -0.124, -0.116, -0.108, -0.1, -0.092, -0.084, -0.076, -0.068, -0.06, -0.052, -0.044, -0.036, -0.028, -0.02, -0.012, -0.004, 0.004, 0.012, 0.02, 0.028, 0.036, 0.044, 0.052, 0.06, 0.068, 0.076, 0.084, 0.092, 0.1, 0.108, 0.116, 0.124, 0.132, 0.14, 0.148, 0.156, 0.164, 0.172, 0.18, 0.188, 0.196, 0.204, 0.212, 0.22, 0.228, 0.236, 0.244, 0.252, 0.26, 0.268, 0.276, 0.284, 0.292, 0.3, 0.308, 0.316, 0.316, 0.316, 0.316, 0.316, 0.316, 0.316, 0.316, 0.316, 0.316, 0.316]",None,None,['right'],[0.47491775010712445],[1.0685379588976502],up,1.645394292077981,None,284.5790565420175,284.5857527080225,284.8364076670259,284.8267293330282,284.82683245802764,284.8364076670259,284.8364076670259,285.86852012504824,285.86852012504824,285.82878191699274,rew,1,3,,,,,,,,,,,,,,,,,,,,,,,,hard,B,2025-04-05_18h29.17.206,asymmetry_final,2024.2.4,120,2025-04-05 18h29.29.431897 -0400,
0,0,0,2,1,pen_comp,54,0.7,-0.26,0.0,-0.024,curv,curv_flat,-0.2,-0.26,pen,rew,input_data/stims/Shape_0.70_0.00.png,input_data/stims/Shape_0.00_2.00.png,input_data/stims/Shape_4.00_2.00.png,up,1.6550902089802548,None,None,None,"['right', 'left']","[0.8114340830361471, 0.9886273329611868]","[0.05598816694691777, 0.8001223750179633]",up,1.9443628749577329,None,1,0,1,0,0,0,0,14,373.6661212920444,,371.93706066708546,371.9450892499881,371.9450892499881,373.6058772080578,up,1.6550902089802548,None,373.6596657499904,0.053709959029220045,374.6521942500258,374.65223429200705,374.69403595803306,375.8039719579974,375.7972350419732,375.79752062505577,0.0002756670583039522,377.18945620802697,377.19077704206575,377.2798272080254,377.2798272080254,377.2798272080254,377.2798272080254,377.2798272080254,377.2798272080254,377.2798272080254,379.22949566703755,"[-0.024, -0.024, -0.024, -0.024, -0.024, -0.024, -0.024, -0.024, -0.024, -0.024, -0.024, -0.024, -0.024, -0.024, -0.024, -0.024, -0.024, -0.024, -0.024, -0.024, -0.024, -0.024, -0.024, -0.024, -0.024, -0.024, -0.024, -0.024, -0.024, -0.024, -0.024, -0.024, -0.024, -0.024, -0.024, -0.024, -0.024, -0.024, -0.024, -0.024, -0.024, -0.024, -0.024, -0.024, -0.024, -0.024, -0.024, -0.024, -0.024, -0.024, -0.024, -0.024, -0.024, -0.024, -0.024, -0.024, -0.024, -0.024, -0.024, -0.024, -0.024, -0.024, -0.024, -0.024, -0.024, -0.024, -0.024, -0.024, -0.024, -0.024, -0.024, -0.024, -0.016, -0.008, 0.0, 0.0, 0.0, 0.0, 0.0, 0.0, 0.0, 0.0, 0.0, 0.0, 0.0, -0.008, -0.016, -0.024, -0.032, -0.04, -0.048, -0.056, -0.064, -0.072, -0.08, -0.088, -0.096, -0.104, -0.112, -0.12, -0.128, -0.136, -0.144, -0.152, -0.16, -0.168, -0.176, -0.184, -0.192, -0.2, -0.208, -0.216, -0.224, -0.232, -0.24, -0.248, -0.256, -0.264, -0.272, -0.28, -0.288, -0.296, -0.304, -0.312, -0.32, -0.328, -0.336, -0.344, -0.352, -0.36, -0.368, -0.376, -0.384, -0.392, -0.392, -0.392, -0.392, -0.392, -0.392, -0.392, -0.392, -0.392, -0.392, -0.392, -0.392, -0.392, -0.392, -0.392, -0.392]",None,None,"['right', 'left']","[0.8114340830361471, 0.9886273329611868]","[0.05598816694691777, 0.8001223750179633]",up,1.9443628749577329,None,379.2297746670665,379.2372047500685,379.4874252920272,379.47764991701115,379.47775637498125,379.4874252920272,379.4874252920272,380.48775637499057,380.48775637499057,380.4782372920308,rew,1,3,,,,,,,285.8603868749924,285.86852012504824,285.86852012504824,371.92891925002914,48,10,up,86.05324633291457,None,,,,,,,,,hard,B,2025-04-05_18h29.17.206,asymmetry_final,2024.2.4,120,2025-04-05 18h29.29.431897 -0400,
1,1,0,2,1,pen_comp,47,0.3,-0.34,0.0,-0.16,curv,flat_curv,0.2,0.34,pen,rew,input_data/stims/Shape_0.30_0.00.png,input_data/stims/Shape_4.00_2.00.png,input_data/stims/Shape_0.00_2.00.png,up,1.6550902089802548,None,None,None,['right'],[0.7875628749607131],[0.8002024160232395],up,1.8013049579458311,None,1,0,1,0,0,1,1,7,380.48775637499057,,,,,,,,,380.4789724170696,0.0007167919538915157,381.470856208005,381.47089770797174,381.5015388750471,382.7616145419888,382.7563907500589,382.75671320804395,0.00033199996687471867,384.09871150006074,384.0999307919992,384.1641558330739,384.1641558330739,384.1641558330739,384.1641558330739,384.1641558330739,384.1641558330739,384.1641558330739,385.97356983297504,"[-0.16, -0.16, -0.16, -0.16, -0.16, -0.16, -0.16, -0.16, -0.16, -0.16, -0.16, -0.16, -0.16, -0.16, -0.16, -0.16, -0.16, -0.16, -0.16, -0.16, -0.16, -0.16, -0.16, -0.16, -0.16, -0.16, -0.16, -0.16, -0.16, -0.16, -0.16, -0.16, -0.16, -0.16, -0.16, -0.16, -0.16, -0.16, -0.16, -0.16, -0.16, -0.16, -0.16, -0.16, -0.16, -0.16, -0.16, -0.16, -0.16, -0.16, -0.16, -0.16, -0.16, -0.16, -0.16, -0.16, -0.16, -0.16, -0.16, -0.16, -0.16, -0.16, -0.16, -0.16, -0.16, -0.16, -0.16, -0.16, -0.16, -0.16, -0.16, -0.16, -0.152, -0.144, -0.136, -0.128, -0.12, -0.112, -0.104, -0.096, -0.088, -0.08, -0.072, -0.064, -0.056, -0.048, -0.04, -0.032, -0.024, -0.016, -0.008, 0.0, 0.008, 0.016, 0.024, 0.032, 0.04, 0.048, 0.056, 0.064, 0.072, 0.08, 0.088, 0.096, 0.104, 0.112, 0.12, 0.128, 0.136, 0.144, 0.152, 0.16, 0.168, 0.176, 0.184, 0.192, 0.2, 0.208, 0.216, 0.224, 0.232, 0.24, 0.248, 0.256, 0.264, 0.272, 0.28, 0.288, 0.288, 0.288, 0.288, 0.288, 0.288, 0.288, 0.288, 0.288, 0.288, 0.288, 0.288, 0.288, 0.288, 0.288, 0.288, 0.288, 0.288, 0.288, 0.288, 0.288]",None,None,['right'],[0.7875628749607131],[0.8002024160232395],up,1.8013049579458311,None,385.9740160830552,385.9810238330392,386.22920837497804,386.2218485000776,386.2219718330307,386.22920837497804,386.22920837497804,387.22797062504105,387.22797062504105,387.2221785420552,rew,1,3,,,,,,,,,,,,,,,,,,,,,,,,hard,B,2025-04-05_18h29.17.206,asymmetry_final,2024.2.4,120,2025-04-05 18h29.29.431897 -0400,
2,2,0,2,1,pen_comp,50,0.5,-0.3,0.0,-0.044,curv,curv_flat,-0.2,-0.3,pen,rew,input_data/stims/Shape_0.50_0.00.png,input_data/stims/Shape_0.00_2.00.png,input_data/stims/Shape_4.00_2.00.png,up,1.6550902089802548,None,None,None,"['left', 'right', 'left']","[0.6973658750066534, 1.6146827079355717, 2.1819889169419184]","[0.6317773750051856, 0.1800654170801863, 0.37210829101968557]",up,2.6892639169236645,None,1,0,1,0,0,2,2,10,387.22797062504105,,,,,,,,,387.222845875076,0.0006573330610990524,388.26472541701514,388.2647669580765,388.29846087505575,389.4272431670688,389.421931333025,389.42213199997786,0.00020970799960196018,390.86405724997167,390.86525020806585,390.928686917061,390.928686917061,390.928686917061,390.928686917061,390.928686917061,390.928686917061,390.928686917061,393.63003016705625,"[-0.044, -0.044, -0.044, -0.044, -0.044, -0.044, -0.044, -0.044, -0.044, -0.044, -0.044, -0.044, -0.044, -0.044, -0.044, -0.044, -0.044, -0.044, -0.044, -0.044, -0.044, -0.044, -0.044, -0.044, -0.044, -0.044, -0.044, -0.044, -0.044, -0.044, -0.044, -0.044, -0.044, -0.044, -0.044, -0.044, -0.044, -0.044, -0.044, -0.044, -0.044, -0.044, -0.044, -0.044, -0.044, -0.044, -0.044, -0.044, -0.044, -0.044, -0.044, -0.044, -0.044, -0.044, -0.044, -0.044, -0.044, -0.044, -0.044, -0.044, -0.044, -0.044, -0.044, -0.044, -0.052, -0.06, -0.068, -0.076, -0.084, -0.092, -0.1, -0.108, -0.116, -0.124, -0.132, -0.14, -0.148, -0.156, -0.164, -0.172, -0.18, -0.188, -0.196, -0.204, -0.212, -0.22, -0.228, -0.236, -0.244, -0.252, -0.26, -0.268, -0.276, -0.284, -0.292, -0.3, -0.308, -0.316, -0.324, -0.332, -0.34, -0.348, -0.356, -0.364, -0.372, -0.38, -0.388, -0.396, -0.396, -0.396, -0.396, -0.396, -0.396, -0.396, -0.396, -0.396, -0.396, -0.396, -0.396, -0.396, -0.396, -0.396, -0.396, -0.396, -0.396, -0.396, -0.396, -0.396, -0.396, -0.396, -0.396, -0.396, -0.396, -0.396, -0.396, -0.388, -0.38, -0.372, -0.364, -0.356, -0.348, -0.34, -0.332, -0.324, -0.316, -0.308, -0.3, -0.292, -0.284, -0.276, -0.276, -0.276, -0.276, -0.276, -0.276, -0.276, -0.276, -0.276, -0.276, -0.276, -0.276, -0.276, -0.276, -0.276, -0.276, -0.276, -0.276, -0.276, -0.276, -0.276, -0.276, -0.276, -0.276, -0.276, -0.276, -0.276, -0.276, -0.276, -0.276, -0.276, -0.276, -0.276, -0.276, -0.284, -0.292, -0.3, -0.308, -0.316, -0.324, -0.332, -0.34, -0.348, -0.356, -0.364, -0.372, -0.38, -0.388, -0.396, -0.396, -0.396, -0.396, -0.396, -0.396, -0.396, -0.396, -0.396, -0.396, -0.396, -0.396, -0.396, -0.396, -0.396, -0.396, -0.396, -0.396, -0.396, -0.396, -0.396, -0.396, -0.396, -0.396, -0.396, -0.396, -0.396, -0.396]",None,None,"['left', 'right', 'left']","[0.6973658750066534, 1.6146827079355717, 2.1819889169419184]","[0.6317773750051856, 0.1800654170801863, 0.37210829101968557]",up,2.6892639169236645,None,393.63046891707927,393.65419154206757,393.91284645802807,393.9055063750129,393.9055957919918,393.91284645802807,393.91284645802807,394.91127833304927,394.91127833304927,394.9050101250177,rew,1,3,,,,,,,,,,,,,,,,,,,,,,,,hard,B,2025-04-05_18h29.17.206,asymmetry_final,2024.2.4,120,2025-04-05 18h29.29.431897 -0400,
3,3,0,2,1,pen_comp,76,2.7,0.14,4.0,-0.288,flat,curv_flat,-0.2,0.14,rew,pen,input_data/stims/Shape_2.70_4.00.png,input_data/stims/Shape_0.00_2.00.png,input_data/stims/Shape_4.00_2.00.png,up,1.6550902089802548,None,None,None,['left'],[1.0010702080326155],[0.15624437504447997],up,1.2985082910163328,None,1,0,1,0,0,3,3,36,394.91127833304927,,,,,,,,,394.9057877920568,0.0007572079775854945,395.8976788750151,395.8977187080309,395.93055725004524,397.04158279206604,397.0370443330612,397.0372822920326,0.00024399999529123306,398.42919637507293,398.4303897500504,398.4907452920452,398.4907452920452,398.4907452920452,398.4907452920452,398.4907452920452,398.4907452920452,398.4907452920452,399.79707808303647,"[-0.288, -0.288, -0.288, -0.288, -0.288, -0.288, -0.288, -0.288, -0.288, -0.288, -0.288, -0.288, -0.288, -0.288, -0.288, -0.288, -0.288, -0.288, -0.288, -0.288, -0.288, -0.288, -0.288, -0.288, -0.288, -0.288, -0.288, -0.288, -0.288, -0.288, -0.288, -0.288, -0.288, -0.288, -0.288, -0.288, -0.288, -0.288, -0.288, -0.288, -0.288, -0.288, -0.288, -0.288, -0.288, -0.288, -0.288, -0.288, -0.288, -0.288, -0.288, -0.288, -0.288, -0.288, -0.288, -0.288, -0.288, -0.288, -0.288, -0.288, -0.288, -0.288, -0.288, -0.288, -0.288, -0.288, -0.288, -0.288, -0.288, -0.288, -0.288, -0.288, -0.288, -0.288, -0.288, -0.288, -0.288, -0.288, -0.288, -0.288, -0.288, -0.288, -0.288, -0.288, -0.288, -0.288, -0.288, -0.288, -0.288, -0.296, -0.304, -0.312, -0.32, -0.328, -0.336, -0.344, -0.352, -0.36, -0.368, -0.376, -0.376, -0.376, -0.376, -0.376, -0.376, -0.376, -0.376, -0.376, -0.376, -0.376, -0.376, -0.376, -0.376, -0.376]",None,None,['left'],[1.0010702080326155],[0.15624437504447997],up,1.2985082910163328,None,399.7974715420278,399.82135833299253,400.0707260000054,400.06140016706195,400.0615042500431,400.0707260000054,,401.0709951670142,,401.06164425006136,pen,0,-3,,,,,400.0707260000054,401.0709951670142,,,,,,,,,,,,,,,,,,hard,B,2025-04-05_18h29.17.206,asymmetry_final,2024.2.4,120,2025-04-05 18h29.29.431897 -0400,
4,4,0,2,1,pen_comp,65,1.5,-0.1,4.0,-0.348,flat,flat_curv,0.2,0.1,rew,pen,input_data/stims/Shape_1.50_4.00.png,input_data/stims/Shape_4.00_2.00.png,input_data/stims/Shape_0.00_2.00.png,up,1.6550902089802548,None,None,None,"['right', 'right']","[0.6875783340074122, 1.6755396670196205]","[0.21983445808291435, 0.11196516698691994]",up,1.9649025000398979,None,1,0,1,0,0,4,4,25,401.0709951670142,,,,,,,,,401.0624472500058,0.0007911249995231628,401.95434304198716,401.95438537502196,401.9875961249927,403.1550763329724,403.14210325002205,403.1423391670687,0.0002407499123364687,404.43429812497925,404.43548554205336,404.49687841697596,404.49687841697596,404.49687841697596,404.49687841697596,404.49687841697596,404.49687841697596,404.49687841697596,406.4735822500661,"[-0.348, -0.348, -0.348, -0.348, -0.348, -0.348, -0.348, -0.348, -0.348, -0.348, -0.348, -0.348, -0.348, -0.348, -0.348, -0.348, -0.348, -0.348, -0.348, -0.348, -0.348, -0.348, -0.348, -0.348, -0.348, -0.348, -0.348, -0.348, -0.348, -0.348, -0.348, -0.348, -0.348, -0.348, -0.348, -0.348, -0.348, -0.348, -0.348, -0.348, -0.348, -0.348, -0.348, -0.348, -0.348, -0.348, -0.348, -0.348, -0.348, -0.348, -0.348, -0.348, -0.348, -0.348, -0.348, -0.348, -0.348, -0.348, -0.348, -0.348, -0.34, -0.332, -0.324, -0.316, -0.308, -0.3, -0.292, -0.284, -0.276, -0.268, -0.26, -0.252, -0.244, -0.236, -0.228, -0.22, -0.212, -0.204, -0.204, -0.204, -0.204, -0.204, -0.204, -0.204, -0.204, -0.204, -0.204, -0.204, -0.204, -0.204, -0.204, -0.204, -0.204, -0.204, -0.204, -0.204, -0.204, -0.204, -0.204, -0.204, -0.204, -0.204, -0.204, -0.204, -0.204, -0.204, -0.204, -0.204, -0.204, -0.204, -0.204, -0.204, -0.204, -0.204, -0.204, -0.204, -0.204, -0.204, -0.204, -0.204, -0.204, -0.204, -0.204, -0.204, -0.204, -0.204, -0.204, -0.204, -0.204, -0.204, -0.204, -0.204, -0.204, -0.204, -0.204, -0.204, -0.204, -0.204, -0.204, -0.204, -0.204, -0.204, -0.204, -0.196, -0.188, -0.18, -0.172, -0.164, -0.156, -0.148, -0.14, -0.132, -0.132, -0.132, -0.132, -0.132, -0.132, -0.132, -0.132, -0.132, -0.132, -0.132, -0.132, -0.132, -0.132, -0.132, -0.132, -0.132, -0.132]",None,None,"['right', 'right']","[0.6875783340074122, 1.6755396670196205]","[0.21983445808291435, 0.11196516698691994]",up,1.9649025000398979,None,406.47403925005347,406.4816138750175,406.72965724999085,406.72196858306415,406.7220867080614,406.72965724999085,,407.7283852500841,,407.721943542012,pen,1,1,406.72965724999085,407.7283852500841,,,,,,,,,,,,,,,,,,,,,,hard,B,2025-04-05_18h29.17.206,asymmetry_final,2024.2.4,120,2025-04-05 18h29.29.431897 -0400,
5,5,0,2,1,pen_comp,64,1.5,-0.1,4.0,-0.34,flat,curv_flat,-0.2,-0.1,rew,pen,input_data/stims/Shape_1.50_4.00.png,input_data/stims/Shape_0.00_2.00.png,input_data/stims/Shape_4.00_2.00.png,up,1.6550902089802548,None,None,None,"['right', 'right', 'left']","[0.5762483750004321, 2.005377124994993, 2.722220499999821]","[0.9399595829891041, 0.28006900008767843, 0.1640753330430016]",up,3.048021375085227,None,1,0,1,0,0,5,5,24,407.7283852500841,,,,,,,,,407.72270812501665,0.0007424999494105577,408.7146089170128,408.7146509999875,408.7476715830853,409.91332179203164,409.90742333303206,409.90771112497896,0.0002882500411942601,411.24967604200356,411.2508382500382,411.31948691699654,411.31948691699654,411.31948691699654,411.31948691699654,411.31948691699654,411.31948691699654,411.31948691699654,414.374087083037,"[-0.34, -0.34, -0.34, -0.34, -0.34, -0.34, -0.34, -0.34, -0.34, -0.34, -0.34, -0.34, -0.34, -0.34, -0.34, -0.34, -0.34, -0.34, -0.34, -0.34, -0.34, -0.34, -0.34, -0.34, -0.34, -0.34, -0.34, -0.34, -0.34, -0.34, -0.34, -0.34, -0.34, -0.34, -0.34, -0.34, -0.34, -0.34, -0.34, -0.34, -0.34, -0.34, -0.34, -0.34, -0.34, -0.34, -0.34, -0.34, -0.34, -0.34, -0.34, -0.332, -0.324, -0.316, -0.308, -0.3, -0.292, -0.284, -0.276, -0.268, -0.26, -0.252, -0.244, -0.236, -0.228, -0.22, -0.212, -0.204, -0.196, -0.188, -0.18, -0.172, -0.164, -0.156, -0.148, -0.14, -0.132, -0.124, -0.116, -0.108, -0.1, -0.092, -0.084, -0.076, -0.068, -0.06, -0.052, -0.044, -0.036, -0.028, -0.02, -0.012, -0.004, 0.004, 0.012, 0.02, 0.028, 0.036, 0.044, 0.052, 0.06, 0.068, 0.076, 0.084, 0.092, 0.1, 0.108, 0.116, 0.124, 0.132, 0.14, 0.148, 0.156, 0.164, 0.172, 0.18, 0.188, 0.196, 0.204, 0.212, 0.22, 0.228, 0.236, 0.236, 0.236, 0.236, 0.236, 0.236, 0.236, 0.236, 0.236, 0.236, 0.236, 0.236, 0.236, 0.236, 0.236, 0.236, 0.236, 0.236, 0.236, 0.236, 0.236, 0.236, 0.236, 0.236, 0.236, 0.236, 0.236, 0.236, 0.236, 0.236, 0.236, 0.236, 0.236, 0.236, 0.236, 0.236, 0.236, 0.236, 0.236, 0.236, 0.236, 0.236, 0.236, 0.244, 0.252, 0.26, 0.268, 0.276, 0.284, 0.292, 0.3, 0.308, 0.316, 0.324, 0.332, 0.34, 0.348, 0.356, 0.364, 0.372, 0.38, 0.388, 0.388, 0.388, 0.388, 0.388, 0.388, 0.388, 0.388, 0.388, 0.388, 0.388, 0.388, 0.388, 0.388, 0.388, 0.388, 0.388, 0.388, 0.388, 0.388, 0.388, 0.388, 0.388, 0.388, 0.388, 0.388, 0.388, 0.388, 0.388, 0.388, 0.388, 0.388, 0.388, 0.38, 0.372, 0.364, 0.356, 0.348, 0.34, 0.332, 0.324, 0.316, 0.308, 0.3, 0.292, 0.284, 0.276, 0.268, 0.268, 0.268, 0.268, 0.268, 0.268, 0.268, 0.268, 0.268, 0.268, 0.268, 0.268, 0.268, 0.268, 0.268, 0.268, 0.268]",None,None,"['right', 'right', 'left']","[0.5762483750004321, 2.005377124994993, 2.722220499999821]","[0.9399595829891041, 0.28006900008767843, 0.1640753330430016]",up,3.048021375085227,None,414.37455579207744,414.38175987498835,414.62868654204067,414.62165445799474,414.6217495420715,414.62868654204067,,415.6280012499774,,415.62184458307456,pen,1,1,414.62868654204067,415.6280012499774,,,,,,,,,,,,,,,,,,,,,,hard,B,2025-04-05_18h29.17.206,asymmetry_final,2024.2.4,120,2025-04-05 18h29.29.431897 -0400,
6,6,0,2,1,pen_comp,55,0.7,-0.26,0.0,0.204,curv,flat_curv,0.2,0.26,pen,rew,input_data/stims/Shape_0.70_0.00.png,input_data/stims/Shape_4.00_2.00.png,input_data/stims/Shape_0.00_2.00.png,up,1.6550902089802548,None,None,None,"['right', 'left', 'right']","[0.789554417016916, 1.333491833996959, 1.8692950420081615]","[0.3320790419820696, 0.3198857910465449, 0.13982204196508974]",up,2.3790105839725584,None,1,0,1,0,0,6,6,15,415.6280012499774,,,,,,,,,415.6225239170017,0.0006690830923616886,416.5144721670076,416.51451379200444,416.54642820800655,417.7554005830316,417.73288058303297,417.7331258750055,0.00024770793970674276,419.0750719580101,419.0762574169785,419.1398723330349,419.1398723330349,419.1398723330349,419.1398723330349,419.1398723330349,419.1398723330349,419.1398723330349,421.5340000829892,"[0.204, 0.204, 0.204, 0.204, 0.204, 0.204, 0.204, 0.204, 0.204, 0.204, 0.204, 0.204, 0.204, 0.204, 0.204, 0.204, 0.204, 0.204, 0.204, 0.204, 0.204, 0.204, 0.204, 0.204, 0.204, 0.204, 0.204, 0.204, 0.204, 0.204, 0.204, 0.204, 0.204, 0.204, 0.204, 0.204, 0.204, 0.204, 0.204, 0.204, 0.204, 0.204, 0.204, 0.204, 0.204, 0.204, 0.204, 0.204, 0.204, 0.204, 0.204, 0.204, 0.204, 0.204, 0.204, 0.204, 0.204, 0.204, 0.204, 0.204, 0.204, 0.204, 0.204, 0.204, 0.204, 0.204, 0.204, 0.204, 0.204, 0.204, 0.204, 0.212, 0.22, 0.228, 0.236, 0.244, 0.252, 0.26, 0.268, 0.276, 0.284, 0.292, 0.3, 0.308, 0.316, 0.324, 0.332, 0.34, 0.348, 0.356, 0.364, 0.372, 0.38, 0.38, 0.38, 0.38, 0.38, 0.38, 0.38, 0.38, 0.38, 0.38, 0.38, 0.38, 0.38, 0.38, 0.38, 0.38, 0.38, 0.38, 0.372, 0.364, 0.356, 0.348, 0.34, 0.332, 0.324, 0.316, 0.308, 0.3, 0.292, 0.284, 0.276, 0.268, 0.26, 0.252, 0.244, 0.236, 0.228, 0.22, 0.212, 0.204, 0.196, 0.196, 0.196, 0.196, 0.196, 0.196, 0.196, 0.196, 0.196, 0.196, 0.196, 0.196, 0.196, 0.196, 0.196, 0.196, 0.196, 0.196, 0.196, 0.196, 0.196, 0.204, 0.212, 0.22, 0.228, 0.236, 0.244, 0.252, 0.26, 0.268, 0.276, 0.284, 0.292, 0.292, 0.292, 0.292, 0.292, 0.292, 0.292, 0.292, 0.292, 0.292, 0.292, 0.292, 0.292, 0.292, 0.292, 0.292, 0.292, 0.292, 0.292, 0.292, 0.292, 0.292, 0.292, 0.292, 0.292, 0.292, 0.292, 0.292, 0.292, 0.292]",None,None,"['right', 'left', 'right']","[0.789554417016916, 1.333491833996959, 1.8692950420081615]","[0.3320790419820696, 0.3198857910465449, 0.13982204196508974]",up,2.3790105839725584,None,421.53450650000013,421.54011225001886,421.79593362507876,421.78840745799243,421.78852458298206,421.79593362507876,421.79593362507876,422.79479525005445,422.79479525005445,422.78842783300206,rew,1,3,,,,,,,,,,,,,,,,,,,,,,,,hard,B,2025-04-05_18h29.17.206,asymmetry_final,2024.2.4,120,2025-04-05 18h29.29.431897 -0400,
