thisN,thisTrialN,thisRepN,blockN,run,condition,trial_key,stim_file_pos,stim_pos,noise_pos,marker_init,shape,shape_order,true_div,div_pos,target_pos,valence,target_file,img1_file,img2_file,valence_direction,direction,marker_direction,noise_direction,shape_category,valence_resp.keys,valence_resp.rt,valence_resp.duration,block_start_resp.keys,block_start_resp.rt,block_start_resp.duration,marker.response,marker.rt,slider_resp.keys,slider_resp.rt,slider_resp.duration,submit_resp.keys,submit_resp.rt,submit_resp.duration,blocks.thisRepN,blocks.thisTrialN,blocks.thisN,blocks.thisIndex,trials.thisRepN,trials.thisTrialN,trials.thisN,trials.thisIndex,thisRow.t,notes,valence_instruct.started,valence_image.started,valence_text.started,valence_resp.started,valence_instruct.stopped,blocks.valence_resp.keys,blocks.valence_resp.rt,blocks.valence_resp.duration,block_start.started,block_start_text.started,block_start_resp.started,block_start.stopped,blocks.block_start_resp.keys,blocks.block_start_resp.rt,blocks.block_start_resp.duration,baseline.started,ISI1.started,baseline.stopped,stim.started,target_stim.started,target_stim.stopped,stim.stopped,delay.started,ISI2.started,delay.stopped,task.started,img1.started,img2.started,divider_line.started,slider_line.started,marker.started,slider_resp.started,submit_resp.started,task.stopped,positions,trials.marker.response,trials.marker.rt,trials.slider_resp.keys,trials.slider_resp.rt,trials.slider_resp.duration,trials.submit_resp.keys,trials.submit_resp.rt,trials.submit_resp.duration,anticipation.started,anticipation_text.started,anticipation_text.stopped,anticipation.stopped,feedback.started,no_resp_text.started,three_cross.started,no_resp_text.stopped,three_cross.stopped,feedback.stopped,correct,outcome,three_coin.started,three_coin.stopped,one_coin.started,one_coin.stopped,one_cross.started,one_cross.stopped,block_end.started,block_end_text.started,block_end_resp.started,block_end.stopped,block_outcome,block_bonus,blocks.block_end_resp.keys,blocks.block_end_resp.rt,blocks.block_end_resp.duration,img1.stopped,img2.stopped,divider_line.stopped,slider_line.stopped,marker.stopped,slider_resp.stopped,submit_resp.stopped,subj,difficulty,sess_type,date,expName,psychopyVersion,frameRate,expStart,
0,0,0,1,1,baseline,16,1.7,-0.06,1.0,0.288,curv,curv_flat,0.0,0.0,-0.06,pen,input_data/stims/Shape_1.70_1.00.png,input_data/stims/Shape_0.00_2.00.png,input_data/stims/Shape_4.00_2.00.png,-1,1,1.0,-1.0,-1,up,6.8413888750365,None,up,1.2302633330691606,None,None,None,"['left', 'left', 'left', 'left']","[0.5432542080525309, 0.7094313739798963, 0.8618968330556527, 1.0227472489932552]","[0.07919699989724904, 0.07984541705809534, 0.08393624995369464, 0.15209366695489734]",up,1.1828474580543116,None,0,0,0,0,0,0,0,16,8.890560999978334,,0.3031307910569012,0.5205024160677567,0.5205024160677567,0.5205024160677567,7.3797126250574365,up,6.8413888750365,None,7.3962510409764946,7.5725101249990985,7.5725101249990985,8.812858332996257,up,1.2302633330691606,None,8.87203433306422,0.05909795803017914,9.86465062503703,9.864716791082174,9.90745862503536,10.94988208299037,10.94455616606865,10.944928499986418,0.00038050010334700346,12.437109458027408,12.43880170804914,12.529687082977034,12.529687082977034,12.529687082977034,12.529687082977034,12.529687082977034,12.529687082977034,12.529687082977034,13.72463766601868,"[0.288, 0.288, 0.288, 0.288, 0.288, 0.288, 0.288, 0.288, 0.288, 0.288, 0.288, 0.288, 0.288, 0.288, 0.288, 0.288, 0.288, 0.288, 0.288, 0.288, 0.288, 0.288, 0.288, 0.288, 0.288, 0.288, 0.288, 0.288, 0.288, 0.288, 0.288, 0.288, 0.288, 0.288, 0.288, 0.288, 0.288, 0.288, 0.288, 0.288, 0.288, 0.288, 0.288, 0.288, 0.288, 0.288, 0.288, 0.288, 0.288, 0.288, 0.288, 0.284, 0.28, 0.276, 0.272, 0.268, 0.264, 0.264, 0.264, 0.264, 0.264, 0.264, 0.264, 0.264, 0.26, 0.256, 0.252, 0.248, 0.244, 0.24, 0.24, 0.24, 0.24, 0.24, 0.24, 0.24, 0.24, 0.236, 0.232, 0.228, 0.224, 0.22, 0.216, 0.216, 0.216, 0.216, 0.216, 0.216, 0.216, 0.216, 0.212, 0.208, 0.204, 0.2, 0.196, 0.192, 0.188, 0.184, 0.18, 0.176, 0.172, 0.168, 0.168]",None,None,"['left', 'left', 'left', 'left']","[0.5432542080525309, 0.7094313739798963, 0.8618968330556527, 1.0227472489932552]","[0.07919699989724904, 0.07984541705809534, 0.08393624995369464, 0.15209366695489734]",up,1.1828474580543116,None,13.725252749980427,13.736050207982771,14.01005654106848,13.999268666026182,13.999376749969088,14.01005654106848,14.01005654106848,15.010693458025344,15.010693458025344,15.000978500000201,0,-5,,,,,,,,,,,,,,,,,,,,,,,albert,,C,2026-03-30_11h00.16.944,asymmetry_final_v2,2024.2.4,120,2026-03-30 11h00.48.069449 -0400,
1,1,0,1,1,baseline,31,3.1,0.22,3.0,-0.076,flat,flat_curv,0.0,0.0,-0.22,rew,input_data/stims/Shape_3.10_3.00.png,input_data/stims/Shape_4.00_2.00.png,input_data/stims/Shape_0.00_2.00.png,1,-1,-1.0,1.0,1,up,6.8413888750365,None,up,1.2302633330691606,None,None,None,['left'],[0.4439341659890488],[0.8031514589674771],up,1.2888412079773843,None,0,0,0,0,0,1,1,31,15.010693458025344,,,,,,,,,,,,,,,,,15.00190620799549,0.0008960000704973936,16.043817166006193,16.043858624994755,16.077404582989402,17.08329808304552,17.078067083028145,17.078365041059442,0.0003042089520022273,18.520324291079305,18.52166820806451,18.58617562497966,18.58617562497966,18.58617562497966,18.58617562497966,18.58617562497966,18.58617562497966,18.58617562497966,19.884554999996908,"[-0.076, -0.076, -0.076, -0.076, -0.076, -0.076, -0.076, -0.076, -0.076, -0.076, -0.076, -0.076, -0.076, -0.076, -0.076, -0.076, -0.076, -0.076, -0.076, -0.076, -0.076, -0.076, -0.076, -0.076, -0.076, -0.076, -0.076, -0.076, -0.076, -0.076, -0.076, -0.076, -0.076, -0.076, -0.076, -0.076, -0.076, -0.076, -0.076, -0.076, -0.076, -0.076, -0.08, -0.084, -0.088, -0.092, -0.096, -0.1, -0.104, -0.108, -0.112, -0.116, -0.12, -0.124, -0.128, -0.132, -0.136, -0.14, -0.144, -0.148, -0.152, -0.156, -0.16, -0.164, -0.168, -0.172, -0.176, -0.18, -0.184, -0.188, -0.192, -0.196, -0.2, -0.204, -0.208, -0.212, -0.216, -0.22, -0.224, -0.228, -0.232, -0.236, -0.24, -0.244, -0.248, -0.252, -0.256, -0.26, -0.264, -0.268, -0.272, -0.276, -0.28, -0.284, -0.288, -0.292, -0.296, -0.3, -0.304, -0.308, -0.312, -0.316, -0.32, -0.32, -0.32, -0.32, -0.32, -0.32]",None,None,['left'],[0.4439341659890488],[0.8031514589674771],up,1.2888412079773843,None,19.884888375061564,19.893354124971665,20.143445541034453,20.133939250023104,20.134047833038494,20.143445541034453,,21.144572000019252,,21.133122291066684,1,5,20.143445541034453,21.144572000019252,,,,,,,,,,,,,,,,,,,,,albert,,C,2026-03-30_11h00.16.944,asymmetry_final_v2,2024.2.4,120,2026-03-30 11h00.48.069449 -0400,
2,2,0,1,1,baseline,11,1.1,-0.18,1.0,0.388,curv,flat_curv,0.0,0.0,0.18,pen,input_data/stims/Shape_1.10_1.00.png,input_data/stims/Shape_4.00_2.00.png,input_data/stims/Shape_0.00_2.00.png,-1,-1,1.0,-1.0,-1,up,6.8413888750365,None,up,1.2302633330691606,None,None,None,"['left', 'left', 'left', 'left', 'left', 'left', 'left', 'left', 'left', 'left', 'left']","[0.6408482081023976, 0.7958559989929199, 0.9575834990246221, 1.1164404581068084, 1.262836916022934, 1.4088701660512015, 1.5485484580276534, 1.692075458006002, 1.8317446240689605, 1.9547854990232736, 2.1067663331050426]","[0.08374479098711163, 0.09598654205910861, 0.08396316703874618, 0.0758349159732461, 0.07191575004253536, 0.07609762495849282, 0.07596333301626146, 0.0840418750885874, 0.0839357499498874, 0.09200045897159725, None]",up,2.2587377490708604,None,0,0,0,0,0,2,2,11,21.144572000019252,,,,,,,,,,,,,,,,,21.134034499991685,0.0008827500278130174,22.025975250056945,22.02602733299136,22.05845416605007,23.09954258298967,23.094382791081443,23.09466608299408,0.000286333030089736,24.38668337499257,24.388007375062443,24.452618708019145,24.452618708019145,24.452618708019145,24.452618708019145,24.452618708019145,24.452618708019145,24.452618708019145,26.71316200005822,"[0.388, 0.388, 0.388, 0.388, 0.388, 0.388, 0.388, 0.388, 0.388, 0.388, 0.388, 0.388, 0.388, 0.388, 0.388, 0.388, 0.388, 0.388, 0.388, 0.388, 0.388, 0.388, 0.388, 0.388, 0.388, 0.388, 0.388, 0.388, 0.388, 0.388, 0.388, 0.388, 0.388, 0.388, 0.388, 0.388, 0.388, 0.388, 0.388, 0.388, 0.388, 0.388, 0.388, 0.388, 0.388, 0.388, 0.388, 0.388, 0.388, 0.388, 0.388, 0.388, 0.388, 0.388, 0.388, 0.384, 0.38, 0.376, 0.372, 0.368, 0.364, 0.36, 0.36, 0.36, 0.36, 0.36, 0.36, 0.36, 0.36, 0.356, 0.352, 0.348, 0.344, 0.34, 0.336, 0.332, 0.328, 0.328, 0.328, 0.328, 0.328, 0.328, 0.328, 0.324, 0.32, 0.316, 0.312, 0.308, 0.304, 0.3, 0.3, 0.3, 0.3, 0.3, 0.296, 0.292, 0.288, 0.284, 0.28, 0.276, 0.276, 0.276, 0.276, 0.276, 0.276, 0.276, 0.272, 0.268, 0.264, 0.26, 0.256, 0.252, 0.252, 0.252, 0.252, 0.252, 0.252, 0.252, 0.252, 0.248, 0.244, 0.24, 0.236, 0.232, 0.232, 0.232, 0.232, 0.232, 0.232, 0.232, 0.228, 0.224, 0.22, 0.216, 0.212, 0.212, 0.212, 0.212, 0.212, 0.212, 0.212, 0.212, 0.208, 0.204, 0.2, 0.196, 0.192, 0.188, 0.184, 0.184, 0.184, 0.184, 0.184, 0.184, 0.184, 0.18, 0.176, 0.172, 0.168, 0.164, 0.16, 0.156, 0.156, 0.156, 0.156, 0.156, 0.152, 0.148, 0.144, 0.14, 0.136, 0.132, 0.128, 0.124, 0.124, 0.124, 0.124, 0.124, 0.124, 0.12, 0.116, 0.112, 0.108, 0.104, 0.1, 0.096, 0.092, 0.088, 0.084, 0.08, 0.076, 0.072]",None,None,"['left', 'left', 'left', 'left', 'left', 'left', 'left', 'left', 'left', 'left', 'left']","[0.6408482081023976, 0.7958559989929199, 0.9575834990246221, 1.1164404581068084, 1.262836916022934, 1.4088701660512015, 1.5485484580276534, 1.692075458006002, 1.8317446240689605, 1.9547854990232736, 2.1067663331050426]","[0.08374479098711163, 0.09598654205910861, 0.08396316703874618, 0.0758349159732461, 0.07191575004253536, 0.07609762495849282, 0.07596333301626146, 0.0840418750885874, 0.0839357499498874, 0.09200045897159725, None]",up,2.2587377490708604,None,26.71360191598069,26.72810875007417,27.003123415983282,26.995213540969416,26.9953302500071,27.003123415983282,,28.000592875061557,,27.994757333071902,1,1,,,27.003123415983282,28.000592875061557,,,,,,,,,,,,,,,,,,,albert,,C,2026-03-30_11h00.16.944,asymmetry_final_v2,2024.2.4,120,2026-03-30 11h00.48.069449 -0400,
3,3,0,1,1,baseline,1,0.1,-0.38,1.0,-0.192,curv,flat_curv,0.0,0.0,0.38,pen,input_data/stims/Shape_0.10_1.00.png,input_data/stims/Shape_4.00_2.00.png,input_data/stims/Shape_0.00_2.00.png,-1,-1,-1.0,-1.0,-1,up,6.8413888750365,None,up,1.2302633330691606,None,None,None,['right'],[0.44124637404456735],[1.3432394169503823],up,1.83221279096324,None,0,0,0,0,0,3,3,1,28.000592875061557,,,,,,,,,,,,,,,,,27.995507540996186,0.0007378329755738378,28.98738162498921,28.987432208028622,29.020600458025,30.094581708079204,30.071930999984033,30.072262790985405,0.0003416669787839055,31.5143091250211,31.51575895806309,31.580050875083543,31.580050875083543,31.580050875083543,31.580050875083543,31.580050875083543,31.580050875083543,31.580050875083543,33.418210500036366,"[-0.192, -0.192, -0.192, -0.192, -0.192, -0.192, -0.192, -0.192, -0.192, -0.192, -0.192, -0.192, -0.192, -0.192, -0.192, -0.192, -0.192, -0.192, -0.192, -0.192, -0.192, -0.192, -0.192, -0.192, -0.192, -0.192, -0.192, -0.192, -0.192, -0.192, -0.192, -0.192, -0.192, -0.192, -0.192, -0.192, -0.192, -0.192, -0.192, -0.192, -0.192, -0.188, -0.184, -0.18, -0.176, -0.172, -0.168, -0.164, -0.16, -0.156, -0.152, -0.148, -0.144, -0.14, -0.136, -0.132, -0.128, -0.124, -0.12, -0.116, -0.112, -0.108, -0.104, -0.1, -0.096, -0.092, -0.088, -0.084, -0.08, -0.076, -0.072, -0.068, -0.064, -0.06, -0.056, -0.052, -0.048, -0.044, -0.04, -0.036, -0.032, -0.028, -0.024, -0.02, -0.016, -0.012, -0.008, -0.004, 0.0, 0.004, 0.008, 0.012, 0.016, 0.02, 0.024, 0.028, 0.032, 0.036, 0.04, 0.044, 0.048, 0.052, 0.056, 0.06, 0.064, 0.068, 0.072, 0.076, 0.08, 0.084, 0.088, 0.092, 0.096, 0.1, 0.104, 0.108, 0.112, 0.116, 0.12, 0.124, 0.128, 0.132, 0.136, 0.14, 0.144, 0.148, 0.152, 0.156, 0.16, 0.164, 0.168, 0.172, 0.176, 0.18, 0.184, 0.188, 0.192, 0.196, 0.2, 0.204, 0.208, 0.212, 0.216, 0.22, 0.224, 0.228, 0.232, 0.236, 0.24, 0.244, 0.248, 0.252, 0.256, 0.26, 0.264, 0.268, 0.272, 0.272, 0.272, 0.272, 0.272]",None,None,['right'],[0.44124637404456735],[1.3432394169503823],up,1.83221279096324,None,33.41881212498993,33.42758062505163,33.73352462507319,33.72807141602971,33.7281518750824,33.73352462507319,,34.73416154098231,,34.72820200002752,1,1,,,33.73352462507319,34.73416154098231,,,,,,,,,,,,,,,,,,,albert,,C,2026-03-30_11h00.16.944,asymmetry_final_v2,2024.2.4,120,2026-03-30 11h00.48.069449 -0400,
4,4,0,1,1,baseline,39,3.9,0.38,3.0,0.024,flat,flat_curv,0.0,0.0,-0.38,rew,input_data/stims/Shape_3.90_3.00.png,input_data/stims/Shape_4.00_2.00.png,input_data/stims/Shape_0.00_2.00.png,1,-1,1.0,1.0,1,up,6.8413888750365,None,up,1.2302633330691606,None,None,None,['left'],[0.3982842080295086],[0.8993340419838205],up,1.305699500022456,None,0,0,0,0,0,4,4,39,34.73416154098231,,,,,,,,,,,,,,,,,34.72911212500185,0.0008857499342411757,35.77113858307712,35.771185083081946,35.803408749983646,36.800014541018754,36.79462287505157,36.79500666598324,0.0004058749182149768,38.08692737505771,38.0882318749791,38.149162458023056,38.149162458023056,38.149162458023056,38.149162458023056,38.149162458023056,38.149162458023056,38.149162458023056,39.46051454101689,"[0.024, 0.024, 0.024, 0.024, 0.024, 0.024, 0.024, 0.024, 0.024, 0.024, 0.024, 0.024, 0.024, 0.024, 0.024, 0.024, 0.024, 0.024, 0.024, 0.024, 0.024, 0.024, 0.024, 0.024, 0.024, 0.024, 0.024, 0.024, 0.024, 0.024, 0.024, 0.024, 0.024, 0.024, 0.024, 0.024, 0.024, 0.024, 0.024, 0.02, 0.016, 0.012, 0.008, 0.004, 0.0, -0.004, -0.008, -0.012, -0.016, -0.02, -0.024, -0.028, -0.032, -0.036, -0.04, -0.044, -0.048, -0.052, -0.056, -0.06, -0.064, -0.068, -0.072, -0.076, -0.08, -0.084, -0.088, -0.092, -0.096, -0.1, -0.104, -0.108, -0.112, -0.116, -0.12, -0.124, -0.128, -0.132, -0.136, -0.14, -0.144, -0.148, -0.152, -0.156, -0.16, -0.164, -0.168, -0.172, -0.176, -0.18, -0.184, -0.188, -0.192, -0.196, -0.2, -0.204, -0.208, -0.212, -0.216, -0.22, -0.224, -0.228, -0.232, -0.236, -0.24, -0.244, -0.248, -0.252, -0.256, -0.256]",None,None,['left'],[0.3982842080295086],[0.8993340419838205],up,1.305699500022456,None,39.46103666606359,39.470817083027214,39.718124540988356,39.71150866604876,39.71159716602415,39.718124540988356,,40.917972875060514,,40.91176166606601,1,5,39.718124540988356,40.917972875060514,,,,,,,,,,,,,,,,,,,,,albert,,C,2026-03-30_11h00.16.944,asymmetry_final_v2,2024.2.4,120,2026-03-30 11h00.48.069449 -0400,
5,5,0,1,1,baseline,18,1.9,-0.02,1.0,-0.124,curv,curv_flat,0.0,0.0,-0.02,pen,input_data/stims/Shape_1.90_1.00.png,input_data/stims/Shape_0.00_2.00.png,input_data/stims/Shape_4.00_2.00.png,-1,1,-1.0,-1.0,-1,up,6.8413888750365,None,up,1.2302633330691606,None,None,None,['right'],[0.48309341608546674],[0.5631572499405593],up,1.1495278330985457,None,0,0,0,0,0,5,5,18,40.917972875060514,,,,,,,,,,,,,,,,,40.91273954103235,0.0009589169640094042,41.95472987508401,41.95478012505919,41.98695895797573,43.00142654101364,42.99590195796918,42.99630091607105,0.0004219580441713333,44.48822604108136,44.48958295804914,44.558531291084364,44.558531291084364,44.558531291084364,44.558531291084364,44.558531291084364,44.558531291084364,44.558531291084364,45.713969625066966,"[-0.124, -0.124, -0.124, -0.124, -0.124, -0.124, -0.124, -0.124, -0.124, -0.124, -0.124, -0.124, -0.124, -0.124, -0.124, -0.124, -0.124, -0.124, -0.124, -0.124, -0.124, -0.124, -0.124, -0.124, -0.124, -0.124, -0.124, -0.124, -0.124, -0.124, -0.124, -0.124, -0.124, -0.124, -0.124, -0.124, -0.124, -0.124, -0.124, -0.124, -0.124, -0.124, -0.124, -0.124, -0.124, -0.124, -0.124, -0.124, -0.12, -0.116, -0.112, -0.108, -0.104, -0.1, -0.096, -0.092, -0.088, -0.084, -0.08, -0.076, -0.072, -0.068, -0.064, -0.06, -0.056, -0.052, -0.048, -0.044, -0.04, -0.036, -0.032, -0.028, -0.024, -0.02, -0.016, -0.012, -0.008, -0.004, 0.0, 0.004, 0.008, 0.012, 0.016, 0.02, 0.024, 0.028, 0.032, 0.036, 0.04, 0.044, 0.048, 0.052, 0.056, 0.06, 0.064, 0.064, 0.064, 0.064, 0.064, 0.064, 0.064, 0.064, 0.064, 0.064]",None,None,['right'],[0.48309341608546674],[0.5631572499405593],up,1.1495278330985457,None,45.71436045807786,45.721690458012745,45.97000404098071,45.962024666019715,45.96215104102157,45.97000404098071,45.97000404098071,46.98413195798639,46.98413195798639,46.97802400006913,0,-5,,,,,,,,,,,,,,,,,,,,,,,albert,,C,2026-03-30_11h00.16.944,asymmetry_final_v2,2024.2.4,120,2026-03-30 11h00.48.069449 -0400,
6,6,0,1,1,baseline,35,3.5,0.3,3.0,0.196,flat,flat_curv,0.0,0.0,-0.3,rew,input_data/stims/Shape_3.50_3.00.png,input_data/stims/Shape_4.00_2.00.png,input_data/stims/Shape_0.00_2.00.png,1,-1,1.0,1.0,1,up,6.8413888750365,None,up,1.2302633330691606,None,None,None,['left'],[0.38338404102250934],[1.5161988749168813],up,1.9075899999588728,None,0,0,0,0,0,6,6,35,46.98413195798639,,,,,,,,,,,,,,,,,46.97901104099583,0.0009716670028865337,47.97096700000111,47.97102362499572,48.00355470797513,49.07729525002651,49.069712582975626,49.06997762504034,0.00026695895940065384,50.56192533299327,50.56322229106445,50.6438159160316,50.6438159160316,50.6438159160316,50.6438159160316,50.6438159160316,50.6438159160316,50.6438159160316,52.562310000066645,"[0.196, 0.196, 0.196, 0.196, 0.196, 0.196, 0.196, 0.196, 0.196, 0.196, 0.196, 0.196, 0.196, 0.196, 0.196, 0.196, 0.196, 0.196, 0.196, 0.196, 0.196, 0.196, 0.196, 0.196, 0.196, 0.196, 0.196, 0.196, 0.196, 0.196, 0.196, 0.196, 0.196, 0.196, 0.196, 0.192, 0.188, 0.184, 0.18, 0.176, 0.172, 0.168, 0.164, 0.16, 0.156, 0.152, 0.148, 0.144, 0.14, 0.136, 0.132, 0.128, 0.124, 0.12, 0.116, 0.112, 0.108, 0.104, 0.1, 0.096, 0.092, 0.088, 0.084, 0.08, 0.076, 0.072, 0.068, 0.064, 0.06, 0.056, 0.052, 0.048, 0.044, 0.04, 0.036, 0.032, 0.028, 0.024, 0.02, 0.016, 0.012, 0.008, 0.004, 0.0, -0.004, -0.008, -0.012, -0.016, -0.02, -0.024, -0.028, -0.032, -0.036, -0.04, -0.044, -0.048, -0.052, -0.056, -0.06, -0.064, -0.068, -0.072, -0.076, -0.08, -0.084, -0.088, -0.092, -0.096, -0.1, -0.104, -0.108, -0.112, -0.116, -0.12, -0.124, -0.128, -0.132, -0.136, -0.14, -0.144, -0.148, -0.152, -0.156, -0.16, -0.164, -0.168, -0.172, -0.176, -0.18, -0.184, -0.188, -0.192, -0.196, -0.2, -0.204, -0.208, -0.212, -0.216, -0.22, -0.224, -0.228, -0.232, -0.236, -0.24, -0.244, -0.248, -0.252, -0.256, -0.26, -0.264, -0.268, -0.272, -0.272, -0.272]",None,None,['left'],[0.38338404102250934],[1.5161988749168813],up,1.9075899999588728,None,52.562766541028395,52.569423375069164,52.818888665991835,52.81211354106199,52.8122366250027,52.818888665991835,,53.81752174999565,,53.811135875061154,1,5,52.818888665991835,53.81752174999565,,,,,,,,,,,,,,,,,,,,,albert,,C,2026-03-30_11h00.16.944,asymmetry_final_v2,2024.2.4,120,2026-03-30 11h00.48.069449 -0400,
7,7,0,1,1,baseline,14,1.5,-0.1,3.0,-0.34,curv,curv_flat,0.0,0.0,-0.1,pen,input_data/stims/Shape_1.50_3.00.png,input_data/stims/Shape_0.00_2.00.png,input_data/stims/Shape_4.00_2.00.png,-1,1,-1.0,1.0,-1,up,6.8413888750365,None,up,1.2302633330691606,None,None,None,['right'],[0.6163828329881653],[0.9393607500242069],up,1.588763750041835,None,0,0,0,0,0,7,7,14,53.81752174999565,,,,,,,,,,,,,,,,,53.812112333020195,0.0009701249655336142,54.75399933301378,54.75404625001829,54.78657220804598,55.82728462503292,55.819774625007994,55.820062458049506,0.00029012502636760473,57.31194708298426,57.31311591598205,57.37647295801435,57.37647295801435,57.37647295801435,57.37647295801435,57.37647295801435,57.37647295801435,57.37647295801435,58.96798800001852,"[-0.34, -0.34, -0.34, -0.34, -0.34, -0.34, -0.34, -0.34, -0.34, -0.34, -0.34, -0.34, -0.34, -0.34, -0.34, -0.34, -0.34, -0.34, -0.34, -0.34, -0.34, -0.34, -0.34, -0.34, -0.34, -0.34, -0.34, -0.34, -0.34, -0.34, -0.34, -0.34, -0.34, -0.34, -0.34, -0.34, -0.34, -0.34, -0.34, -0.34, -0.34, -0.34, -0.34, -0.34, -0.34, -0.34, -0.34, -0.34, -0.34, -0.34, -0.34, -0.34, -0.34, -0.336, -0.332, -0.328, -0.324, -0.32, -0.316, -0.312, -0.308, -0.304, -0.3, -0.296, -0.292, -0.288, -0.284, -0.28, -0.276, -0.272, -0.268, -0.264, -0.26, -0.256, -0.252, -0.248, -0.244, -0.24, -0.236, -0.232, -0.228, -0.224, -0.22, -0.216, -0.212, -0.208, -0.204, -0.2, -0.196, -0.192, -0.188, -0.184, -0.18, -0.176, -0.172, -0.168, -0.164, -0.16, -0.156, -0.152, -0.148, -0.144, -0.14, -0.136, -0.132, -0.128, -0.124, -0.12, -0.116, -0.112, -0.108, -0.104, -0.1, -0.096, -0.092, -0.088, -0.084, -0.08, -0.076, -0.072, -0.068, -0.064, -0.06, -0.056, -0.052, -0.048, -0.044, -0.04, -0.036, -0.032, -0.032, -0.032, -0.032, -0.032]",None,None,['right'],[0.6163828329881653],[0.9393607500242069],up,1.588763750041835,None,58.96828945807647,58.976888000033796,59.22794170805719,59.2173543330282,59.21745608304627,59.22794170805719,,60.228561333031394,,60.21756558306515,1,1,,,59.22794170805719,60.228561333031394,,,,,,,,,,,,,,,,,,,albert,,C,2026-03-30_11h00.16.944,asymmetry_final_v2,2024.2.4,120,2026-03-30 11h00.48.069449 -0400,
8,8,0,1,1,baseline,7,0.7,-0.26,3.0,0.064,curv,flat_curv,0.0,0.0,0.26,pen,input_data/stims/Shape_0.70_3.00.png,input_data/stims/Shape_4.00_2.00.png,input_data/stims/Shape_0.00_2.00.png,-1,-1,1.0,1.0,-1,up,6.8413888750365,None,up,1.2302633330691606,None,None,None,['left'],[0.6198125829687342],[0.10718266700860113],up,0.8587368750013411,None,0,0,0,0,0,8,8,7,60.228561333031394,,,,,,,,,,,,,,,,,60.218419249984436,0.0008378330385312438,61.16027916606981,61.16031787497923,61.191999749979004,62.28347416606266,62.27837445808109,62.278669791063294,0.0002989999484270811,63.57068437500857,63.57200758298859,63.63675058307126,63.63675058307126,63.63675058307126,63.63675058307126,63.63675058307126,63.63675058307126,63.63675058307126,64.51276962505654,"[0.064, 0.064, 0.064, 0.064, 0.064, 0.064, 0.064, 0.064, 0.064, 0.064, 0.064, 0.064, 0.064, 0.064, 0.064, 0.064, 0.064, 0.064, 0.064, 0.064, 0.064, 0.064, 0.064, 0.064, 0.064, 0.064, 0.064, 0.064, 0.064, 0.064, 0.064, 0.064, 0.064, 0.064, 0.064, 0.064, 0.064, 0.064, 0.064, 0.064, 0.064, 0.064, 0.064, 0.064, 0.064, 0.064, 0.064, 0.064, 0.064, 0.064, 0.064, 0.064, 0.064, 0.064, 0.064, 0.064, 0.064, 0.064, 0.064, 0.064, 0.06, 0.056, 0.052, 0.048, 0.044, 0.04, 0.036, 0.036, 0.036, 0.036, 0.036, 0.036, 0.036, 0.036, 0.036, 0.036, 0.036, 0.036, 0.036, 0.036]",None,None,['left'],[0.6198125829687342],[0.10718266700860113],up,0.8587368750013411,None,64.51300262508448,64.51933587505482,64.76838875003159,64.76193775003776,64.76203354098834,64.76838875003159,,65.77843591605779,,65.76775554101914,1,1,,,64.76838875003159,65.77843591605779,,,,,,,,,,,,,,,,,,,albert,,C,2026-03-30_11h00.16.944,asymmetry_final_v2,2024.2.4,120,2026-03-30 11h00.48.069449 -0400,
9,9,0,1,1,baseline,32,3.3,0.26,1.0,-0.036,flat,curv_flat,0.0,0.0,0.26,rew,input_data/stims/Shape_3.30_1.00.png,input_data/stims/Shape_0.00_2.00.png,input_data/stims/Shape_4.00_2.00.png,1,1,-1.0,-1.0,1,up,6.8413888750365,None,up,1.2302633330691606,None,None,None,['right'],[0.5962372909998521],[0.3912416249513626],up,1.136439915979281,None,0,0,0,0,0,9,9,32,65.77843591605779,,,,,,,,,,,,,,,,,65.76862958306447,0.0008577500702813268,66.71058133302722,66.71063620806672,66.74252199998591,67.76724529103376,67.76164691604208,67.76194479106925,0.0003095000283792615,69.25394125003368,69.25519041600637,69.3191671250388,69.3191671250388,69.3191671250388,69.3191671250388,69.3191671250388,69.3191671250388,69.3191671250388,70.46442091604695,"[-0.036, -0.036, -0.036, -0.036, -0.036, -0.036, -0.036, -0.036, -0.036, -0.036, -0.036, -0.036, -0.036, -0.036, -0.036, -0.036, -0.036, -0.036, -0.036, -0.036, -0.036, -0.036, -0.036, -0.036, -0.036, -0.036, -0.036, -0.036, -0.036, -0.036, -0.036, -0.036, -0.036, -0.036, -0.036, -0.036, -0.036, -0.036, -0.036, -0.036, -0.036, -0.036, -0.036, -0.036, -0.036, -0.036, -0.036, -0.036, -0.036, -0.036, -0.036, -0.036, -0.036, -0.036, -0.032, -0.028, -0.024, -0.02, -0.016, -0.012, -0.008, -0.004, 0.0, 0.004, 0.008, 0.012, 0.016, 0.02, 0.024, 0.028, 0.032, 0.036, 0.04, 0.044, 0.048, 0.052, 0.056, 0.06, 0.064, 0.068, 0.072, 0.076, 0.08, 0.084, 0.084, 0.084, 0.084, 0.084, 0.084, 0.084, 0.084, 0.084, 0.084, 0.084, 0.084, 0.084, 0.084, 0.084]",None,None,['right'],[0.5962372909998521],[0.3912416249513626],up,1.136439915979281,None,70.46482887503225,70.4728746250039,70.74480137508363,70.73415766598191,70.73427266604267,70.74480137508363,,71.74406399996951,,71.73545791604556,1,5,70.74480137508363,71.74406399996951,,,,,,,,,,,,,,,,,,,,,albert,,C,2026-03-30_11h00.16.944,asymmetry_final_v2,2024.2.4,120,2026-03-30 11h00.48.069449 -0400,
10,10,0,1,1,baseline,38,3.9,0.38,3.0,-0.008,flat,curv_flat,0.0,0.0,0.38,rew,input_data/stims/Shape_3.90_3.00.png,input_data/stims/Shape_0.00_2.00.png,input_data/stims/Shape_4.00_2.00.png,1,1,-1.0,1.0,1,up,6.8413888750365,None,up,1.2302633330691606,None,None,None,['right'],[0.41132983297575265],[None],up,1.262730458052829,None,0,0,0,0,0,10,10,38,71.74406399996951,,,,,,,,,,,,,,,,,71.73631520802155,0.0008475420763716102,72.82824116607662,72.82828462508041,72.86188149999361,73.86798454099335,73.86220008297823,73.86250704107806,0.00031945796217769384,75.30447470804211,75.30578433303162,75.36480462504551,75.36480462504551,75.36480462504551,75.36480462504551,75.36480462504551,75.36480462504551,75.36480462504551,76.63021420803852,"[-0.008, -0.008, -0.008, -0.008, -0.008, -0.008, -0.008, -0.008, -0.008, -0.008, -0.008, -0.008, -0.008, -0.008, -0.008, -0.008, -0.008, -0.008, -0.008, -0.008, -0.008, -0.008, -0.008, -0.008, -0.008, -0.008, -0.008, -0.008, -0.008, -0.008, -0.008, -0.008, -0.008, -0.008, -0.008, -0.008, -0.008, -0.008, -0.004, 0.0, 0.004, 0.008, 0.012, 0.016, 0.02, 0.024, 0.028, 0.032, 0.036, 0.04, 0.044, 0.048, 0.052, 0.056, 0.06, 0.064, 0.068, 0.072, 0.076, 0.08, 0.084, 0.088, 0.092, 0.096, 0.1, 0.104, 0.108, 0.112, 0.116, 0.12, 0.124, 0.128, 0.132, 0.136, 0.14, 0.144, 0.148, 0.152, 0.156, 0.16, 0.164, 0.168, 0.172, 0.176, 0.18, 0.184, 0.188, 0.192, 0.196, 0.2, 0.204, 0.208, 0.212, 0.216, 0.22, 0.224, 0.228, 0.232, 0.236, 0.24, 0.244, 0.248, 0.252, 0.256, 0.26]",None,None,['right'],[0.41132983297575265],[None],up,1.262730458052829,None,76.63060058304109,76.637926000054,76.8857221660437,76.87896424997598,76.87906145805027,76.8857221660437,,77.89403016597498,,77.88563633302692,1,5,76.8857221660437,77.89403016597498,,,,,,,,,,,,,,,,,,,,,albert,,C,2026-03-30_11h00.16.944,asymmetry_final_v2,2024.2.4,120,2026-03-30 11h00.48.069449 -0400,
11,11,0,1,1,baseline,37,3.7,0.34,1.0,0.164,flat,flat_curv,0.0,0.0,-0.34,rew,input_data/stims/Shape_3.70_1.00.png,input_data/stims/Shape_4.00_2.00.png,input_data/stims/Shape_0.00_2.00.png,1,-1,1.0,-1.0,1,up,6.8413888750365,None,up,1.2302633330691606,None,None,None,"['left', 'left']","[0.5144935409771279, 1.5908409579424188]","[1.043286999920383, None]",up,1.7829510408919305,None,0,0,0,0,0,11,11,37,77.89403016597498,,,,,,,,,,,,,,,,,77.88657033303753,0.0008547500474378467,78.92856787506025,78.92862341599539,78.96060887502972,80.03513233305421,80.02986091608182,80.03012104099616,0.0002716250019147992,81.37203470803797,81.37344462506007,81.44359754107427,81.44359754107427,81.44359754107427,81.44359754107427,81.44359754107427,81.44359754107427,81.44359754107427,83.2315849160077,"[0.164, 0.164, 0.164, 0.164, 0.164, 0.164, 0.164, 0.164, 0.164, 0.164, 0.164, 0.164, 0.164, 0.164, 0.164, 0.164, 0.164, 0.164, 0.164, 0.164, 0.164, 0.164, 0.164, 0.164, 0.164, 0.164, 0.164, 0.164, 0.164, 0.164, 0.164, 0.164, 0.164, 0.164, 0.164, 0.164, 0.164, 0.164, 0.164, 0.164, 0.164, 0.164, 0.164, 0.164, 0.164, 0.16, 0.156, 0.152, 0.148, 0.144, 0.14, 0.136, 0.132, 0.128, 0.124, 0.12, 0.116, 0.112, 0.108, 0.104, 0.1, 0.096, 0.092, 0.088, 0.084, 0.08, 0.076, 0.072, 0.068, 0.064, 0.06, 0.056, 0.052, 0.048, 0.044, 0.04, 0.036, 0.032, 0.028, 0.024, 0.02, 0.016, 0.012, 0.008, 0.004, 0.0, -0.004, -0.008, -0.012, -0.016, -0.02, -0.024, -0.028, -0.032, -0.036, -0.04, -0.044, -0.048, -0.052, -0.056, -0.06, -0.064, -0.068, -0.072, -0.076, -0.08, -0.084, -0.088, -0.092, -0.096, -0.1, -0.104, -0.108, -0.112, -0.116, -0.12, -0.124, -0.128, -0.132, -0.136, -0.14, -0.144, -0.148, -0.152, -0.156, -0.16, -0.164, -0.168, -0.172, -0.176, -0.18, -0.184, -0.188, -0.192, -0.196, -0.196, -0.196, -0.196, -0.2, -0.204, -0.208, -0.212, -0.216, -0.22, -0.224, -0.228, -0.232, -0.236, -0.24, -0.244, -0.248, -0.252, -0.256]",None,None,"['left', 'left']","[0.5144935409771279, 1.5908409579424188]","[1.043286999920383, None]",up,1.7829510408919305,None,83.23204287502449,83.2393872080138,83.48574200004805,83.47880345804151,83.47889295802452,83.48574200004805,,84.48502370808274,,84.4789565410465,1,5,83.48574200004805,84.48502370808274,,,,,,,,,,,,,,,,,,,,,albert,,C,2026-03-30_11h00.16.944,asymmetry_final_v2,2024.2.4,120,2026-03-30 11h00.48.069449 -0400,
12,12,0,1,1,baseline,8,0.9,-0.22,3.0,0.148,curv,curv_flat,0.0,0.0,-0.22,pen,input_data/stims/Shape_0.90_3.00.png,input_data/stims/Shape_0.00_2.00.png,input_data/stims/Shape_4.00_2.00.png,-1,1,1.0,1.0,-1,up,6.8413888750365,None,up,1.2302633330691606,None,None,None,['left'],[0.4566118330694735],[0.7273619159823284],up,1.1839737490518019,None,0,0,0,0,0,12,12,8,84.48502370808274,,,,,,,,,,,,,,,,,84.47978962503839,0.0008283749921247363,85.42169824999291,85.42174266604707,85.4520292080706,86.48434641608037,86.47907737502828,86.4794271660503,0.00035787501838058233,87.8713571249973,87.87279483303428,87.94483225001022,87.94483225001022,87.94483225001022,87.94483225001022,87.94483225001022,87.94483225001022,87.94483225001022,89.13119541597553,"[0.148, 0.148, 0.148, 0.148, 0.148, 0.148, 0.148, 0.148, 0.148, 0.148, 0.148, 0.148, 0.148, 0.148, 0.148, 0.148, 0.148, 0.148, 0.148, 0.148, 0.148, 0.148, 0.148, 0.148, 0.148, 0.148, 0.148, 0.148, 0.148, 0.148, 0.148, 0.148, 0.148, 0.148, 0.148, 0.148, 0.148, 0.148, 0.148, 0.148, 0.148, 0.148, 0.148, 0.148, 0.148, 0.144, 0.14, 0.136, 0.132, 0.128, 0.124, 0.12, 0.116, 0.112, 0.108, 0.104, 0.1, 0.096, 0.092, 0.088, 0.084, 0.08, 0.076, 0.072, 0.068, 0.064, 0.06, 0.056, 0.052, 0.048, 0.044, 0.04, 0.036, 0.032, 0.028, 0.024, 0.02, 0.016, 0.012, 0.008, 0.004, 0.0, -0.004, -0.008, -0.012, -0.016, -0.02, -0.024, -0.028, -0.032, -0.036, -0.04, -0.044, -0.048, -0.052, -0.056, -0.06, -0.064, -0.068, -0.072, -0.076, -0.08, -0.084]",None,None,['left'],[0.4566118330694735],[0.7273619159823284],up,1.1839737490518019,None,89.1315411250107,89.13891787501052,89.38548625004478,89.37908891600091,89.37918458296917,89.38548625004478,,90.38544375007041,,90.37923149997368,1,1,,,89.38548625004478,90.38544375007041,,,,,,,,,,,,,,,,,,,albert,,C,2026-03-30_11h00.16.944,asymmetry_final_v2,2024.2.4,120,2026-03-30 11h00.48.069449 -0400,
13,13,0,1,1,baseline,4,0.5,-0.3,1.0,0.124,curv,curv_flat,0.0,0.0,-0.3,pen,input_data/stims/Shape_0.50_1.00.png,input_data/stims/Shape_0.00_2.00.png,input_data/stims/Shape_4.00_2.00.png,-1,1,1.0,-1.0,-1,up,6.8413888750365,None,up,1.2302633330691606,None,None,None,['left'],[0.3682822500122711],[None],up,1.2995247499784455,None,0,0,0,0,0,13,13,4,90.38544375007041,,,,,,,,,,,,,,,,,90.38009454100393,0.0008494160138070583,91.4221115000546,91.4221650409745,91.45525029103737,92.54408783302642,92.53852691606153,92.53883995802607,0.00032049999572336674,93.88077866600361,93.88209025003016,93.95760787499603,93.95760787499603,93.95760787499603,93.95760787499603,93.95760787499603,93.95760787499603,93.95760787499603,95.2727146249963,"[0.124, 0.124, 0.124, 0.124, 0.124, 0.124, 0.124, 0.124, 0.124, 0.124, 0.124, 0.124, 0.124, 0.124, 0.124, 0.124, 0.124, 0.124, 0.124, 0.124, 0.124, 0.124, 0.124, 0.124, 0.124, 0.124, 0.124, 0.124, 0.124, 0.124, 0.124, 0.124, 0.124, 0.12, 0.116, 0.112, 0.108, 0.104, 0.1, 0.096, 0.092, 0.088, 0.084, 0.08, 0.076, 0.072, 0.068, 0.064, 0.06, 0.056, 0.052, 0.048, 0.044, 0.04, 0.036, 0.032, 0.028, 0.024, 0.02, 0.016, 0.012, 0.008, 0.004, 0.0, -0.004, -0.008, -0.012, -0.016, -0.02, -0.024, -0.028, -0.032, -0.036, -0.04, -0.044, -0.048, -0.052, -0.056, -0.06, -0.064, -0.068, -0.072, -0.076, -0.08, -0.084, -0.088, -0.092, -0.096, -0.1, -0.104, -0.108, -0.112, -0.116, -0.12, -0.124, -0.128, -0.132, -0.136, -0.14]",None,None,['left'],[0.3682822500122711],[None],up,1.2995247499784455,None,95.27312712499406,95.29526616598014,95.54522654099856,95.5330173750408,95.53310791600961,95.54522654099856,,96.5455574580701,,96.53583437507041,1,1,,,95.54522654099856,96.5455574580701,,,,,,,,,,,,,,,,,,,albert,,C,2026-03-30_11h00.16.944,asymmetry_final_v2,2024.2.4,120,2026-03-30 11h00.48.069449 -0400,
14,14,0,1,1,baseline,34,3.5,0.3,1.0,-0.048,flat,curv_flat,0.0,0.0,0.3,rew,input_data/stims/Shape_3.50_1.00.png,input_data/stims/Shape_0.00_2.00.png,input_data/stims/Shape_4.00_2.00.png,1,1,-1.0,-1.0,1,up,6.8413888750365,None,up,1.2302633330691606,None,None,None,['right'],[0.41134204203262925],[0.4629067078931257],up,0.8942230829270557,None,0,0,0,0,0,14,14,34,96.5455574580701,,,,,,,,,,,,,,,,,96.53633845807053,0.0004911670694127679,97.42833662498742,97.42839900008403,97.4604775410844,98.46188954100944,98.45374675001949,98.45402454107534,0.0002863749396055937,99.9460571249947,99.94740987499245,100.01014116604347,100.01014116604347,100.01014116604347,100.01014116604347,100.01014116604347,100.01014116604347,100.01014116604347,100.91241762507707,"[-0.048, -0.048, -0.048, -0.048, -0.048, -0.048, -0.048, -0.048, -0.048, -0.048, -0.048, -0.048, -0.048, -0.048, -0.048, -0.048, -0.048, -0.048, -0.048, -0.048, -0.048, -0.048, -0.048, -0.048, -0.048, -0.048, -0.048, -0.048, -0.048, -0.048, -0.048, -0.048, -0.048, -0.048, -0.048, -0.048, -0.048, -0.048, -0.048, -0.048, -0.048, -0.048, -0.044, -0.04, -0.036, -0.032, -0.028, -0.024, -0.02, -0.016, -0.012, -0.008, -0.004, 0.0, 0.004, 0.008, 0.012, 0.016, 0.02, 0.024, 0.028, 0.032, 0.036, 0.04, 0.044, 0.048, 0.052, 0.056, 0.06, 0.064, 0.068, 0.072, 0.076, 0.08, 0.084, 0.088, 0.092, 0.092, 0.092]",None,None,['right'],[0.41134204203262925],[0.4629067078931257],up,0.8942230829270557,None,100.91286354104523,100.9218703750521,101.16974191600457,101.16266883304343,101.16276841599029,101.16974191600457,,102.1691987500526,,102.16224541608244,1,5,101.16974191600457,102.1691987500526,,,,,,,,,,,,,,,,,,,,,albert,,C,2026-03-30_11h00.16.944,asymmetry_final_v2,2024.2.4,120,2026-03-30 11h00.48.069449 -0400,
15,15,0,1,1,baseline,17,1.7,-0.06,3.0,0.232,curv,flat_curv,0.0,0.0,0.06,pen,input_data/stims/Shape_1.70_3.00.png,input_data/stims/Shape_4.00_2.00.png,input_data/stims/Shape_0.00_2.00.png,-1,-1,1.0,1.0,-1,up,6.8413888750365,None,up,1.2302633330691606,None,None,None,['left'],[0.45306883298326284],[0.9040287920506671],up,1.37965129094664,None,0,0,0,0,0,15,15,17,102.1691987500526,,,,,,,,,,,,,,,,,102.16330345801543,0.0010430840775370598,103.25525487505365,103.25530125002842,103.28842579107732,104.29444433306344,104.2874656249769,104.28776387497783,0.00030433398205786943,105.67972104100045,105.68093087500893,105.74205829098355,105.74205829098355,105.74205829098355,105.74205829098355,105.74205829098355,105.74205829098355,105.74205829098355,107.13084808306303,"[0.232, 0.232, 0.232, 0.232, 0.232, 0.232, 0.232, 0.232, 0.232, 0.232, 0.232, 0.232, 0.232, 0.232, 0.232, 0.232, 0.232, 0.232, 0.232, 0.232, 0.232, 0.232, 0.232, 0.232, 0.232, 0.232, 0.232, 0.232, 0.232, 0.232, 0.232, 0.232, 0.232, 0.232, 0.232, 0.232, 0.232, 0.232, 0.232, 0.232, 0.232, 0.228, 0.224, 0.22, 0.216, 0.212, 0.208, 0.204, 0.2, 0.196, 0.192, 0.188, 0.184, 0.18, 0.176, 0.172, 0.168, 0.164, 0.16, 0.156, 0.152, 0.148, 0.144, 0.14, 0.136, 0.132, 0.128, 0.124, 0.12, 0.116, 0.112, 0.108, 0.104, 0.1, 0.096, 0.092, 0.088, 0.084, 0.08, 0.076, 0.072, 0.068, 0.064, 0.06, 0.056, 0.052, 0.048, 0.044, 0.04, 0.036, 0.032, 0.028, 0.024, 0.02, 0.016, 0.012, 0.008, 0.004, 0.0, -0.004, -0.008, -0.012, -0.016, -0.02, -0.024, -0.028, -0.032, -0.036, -0.04, -0.044, -0.044, -0.044, -0.044]",None,None,['left'],[0.45306883298326284],[0.9040287920506671],up,1.37965129094664,None,107.13117729104124,107.13769829098601,107.3872489159694,107.37930683302693,107.37939083308447,107.3872489159694,107.3872489159694,108.41848524997476,108.41848524997476,108.41239254106767,0,-5,,,,,,,,,,,,,,,,,,,,,,,albert,,C,2026-03-30_11h00.16.944,asymmetry_final_v2,2024.2.4,120,2026-03-30 11h00.48.069449 -0400,
16,16,0,1,1,baseline,29,2.9,0.18,3.0,0.28,flat,flat_curv,0.0,0.0,-0.18,rew,input_data/stims/Shape_2.90_3.00.png,input_data/stims/Shape_4.00_2.00.png,input_data/stims/Shape_0.00_2.00.png,1,-1,1.0,1.0,1,up,6.8413888750365,None,up,1.2302633330691606,None,None,None,['left'],[0.3726493329741061],[None],up,2.0960010829148814,None,0,0,0,0,0,16,16,29,108.41848524997476,,,,,,,,,,,,,,,,,108.41326754097827,0.0008589159697294235,109.35524620802607,109.35529883299023,109.3869894159725,110.46102899999823,110.45396062498912,110.4542118330719,0.00025641603861004114,111.84608729102183,111.84728704101872,111.90743287501391,111.90743287501391,111.90743287501391,111.90743287501391,111.90743287501391,111.90743287501391,111.90743287501391,114.01155816600658,"[0.28, 0.28, 0.28, 0.28, 0.28, 0.28, 0.28, 0.28, 0.28, 0.28, 0.28, 0.28, 0.28, 0.28, 0.28, 0.28, 0.28, 0.28, 0.28, 0.28, 0.28, 0.28, 0.28, 0.28, 0.28, 0.28, 0.28, 0.28, 0.28, 0.28, 0.28, 0.28, 0.276, 0.272, 0.268, 0.264, 0.26, 0.256, 0.252, 0.248, 0.244, 0.24, 0.236, 0.232, 0.228, 0.224, 0.22, 0.216, 0.212, 0.208, 0.204, 0.2, 0.196, 0.192, 0.188, 0.184, 0.18, 0.176, 0.172, 0.168, 0.164, 0.16, 0.156, 0.152, 0.148, 0.144, 0.14, 0.136, 0.132, 0.128, 0.124, 0.12, 0.116, 0.112, 0.108, 0.104, 0.1, 0.096, 0.092, 0.088, 0.084, 0.08, 0.076, 0.072, 0.068, 0.064, 0.06, 0.056, 0.052, 0.048, 0.044, 0.04, 0.036, 0.032, 0.028, 0.024, 0.02, 0.016, 0.012, 0.008, 0.004, 0.0, -0.004, -0.008, -0.012, -0.016, -0.02, -0.024, -0.028, -0.032, -0.036, -0.04, -0.044, -0.048, -0.052, -0.056, -0.06, -0.064, -0.068, -0.072, -0.076, -0.08, -0.084, -0.088, -0.092, -0.096, -0.1, -0.104, -0.108, -0.112, -0.116, -0.12, -0.124, -0.128, -0.132, -0.136, -0.14, -0.144, -0.148, -0.152, -0.156, -0.16, -0.164, -0.168, -0.172, -0.176, -0.18, -0.184, -0.188, -0.192, -0.196, -0.2, -0.204, -0.208, -0.212, -0.216, -0.22, -0.224, -0.228, -0.232, -0.236, -0.24, -0.244, -0.248, -0.252, -0.256, -0.26, -0.264, -0.268, -0.272, -0.276, -0.28, -0.284, -0.288, -0.292, -0.296, -0.3]",None,None,['left'],[0.3726493329741061],[None],up,2.0960010829148814,None,114.0119257500628,114.01856787502766,114.26916179107502,114.26243445801083,114.26253829104826,114.26916179107502,,115.26881545805372,,115.2626174580073,1,5,114.26916179107502,115.26881545805372,,,,,,,,,,,,,,,,,,,,,albert,,C,2026-03-30_11h00.16.944,asymmetry_final_v2,2024.2.4,120,2026-03-30 11h00.48.069449 -0400,
17,17,0,1,1,baseline,30,3.1,0.22,3.0,0.128,flat,curv_flat,0.0,0.0,0.22,rew,input_data/stims/Shape_3.10_3.00.png,input_data/stims/Shape_0.00_2.00.png,input_data/stims/Shape_4.00_2.00.png,1,1,1.0,1.0,1,up,6.8413888750365,None,up,1.2302633330691606,None,None,None,"['right', 'right', 'right']","[1.056208457914181, 1.328734999988228, 1.5431302919751033]","[0.1633795420639217, 0.1079274999210611, 0.13172020798083395]",up,1.9583011670038104,None,0,0,0,0,0,17,17,30,115.26881545805372,,,,,,,,,,,,,,,,,115.263533832971,0.0009030000073835254,116.3555241250433,116.35559341602493,116.38757583301049,117.71182495797984,117.70326733298134,117.70353158307262,0.00029024994000792503,119.14556141605135,119.1469352080021,119.23258862504736,119.23258862504736,119.23258862504736,119.23258862504736,119.23258862504736,119.23258862504736,119.23258862504736,121.20219137507956,"[0.128, 0.128, 0.128, 0.128, 0.128, 0.128, 0.128, 0.128, 0.128, 0.128, 0.128, 0.128, 0.128, 0.128, 0.128, 0.128, 0.128, 0.128, 0.128, 0.128, 0.128, 0.128, 0.128, 0.128, 0.128, 0.128, 0.128, 0.128, 0.128, 0.128, 0.128, 0.128, 0.128, 0.128, 0.128, 0.128, 0.128, 0.128, 0.128, 0.128, 0.128, 0.128, 0.128, 0.128, 0.128, 0.128, 0.128, 0.128, 0.128, 0.128, 0.128, 0.128, 0.128, 0.128, 0.128, 0.128, 0.128, 0.128, 0.128, 0.128, 0.128, 0.128, 0.128, 0.128, 0.128, 0.128, 0.128, 0.128, 0.128, 0.128, 0.128, 0.128, 0.128, 0.128, 0.128, 0.128, 0.128, 0.128, 0.128, 0.128, 0.128, 0.128, 0.128, 0.128, 0.128, 0.128, 0.128, 0.128, 0.128, 0.128, 0.128, 0.128, 0.128, 0.128, 0.128, 0.128, 0.132, 0.136, 0.14, 0.144, 0.148, 0.152, 0.156, 0.16, 0.164, 0.168, 0.168, 0.168, 0.168, 0.168, 0.168, 0.168, 0.168, 0.168, 0.172, 0.176, 0.18, 0.184, 0.188, 0.192, 0.196, 0.196, 0.196, 0.196, 0.196, 0.196, 0.196, 0.196, 0.196, 0.2, 0.204, 0.208, 0.212, 0.216, 0.22, 0.224, 0.228, 0.232, 0.236, 0.24, 0.244, 0.244, 0.244, 0.244, 0.244, 0.244, 0.244, 0.244, 0.244, 0.244, 0.244, 0.244, 0.244, 0.244, 0.244, 0.244, 0.244, 0.244, 0.244, 0.244, 0.244, 0.244, 0.244, 0.244, 0.244, 0.244]",None,None,"['right', 'right', 'right']","[1.056208457914181, 1.328734999988228, 1.5431302919751033]","[0.1633795420639217, 0.1079274999210611, 0.13172020798083395]",up,1.9583011670038104,None,121.20270679099485,121.21092750004027,121.46963595808484,121.46267295803409,121.46279520797543,121.46963595808484,,122.48631449998356,,122.47959008300677,1,5,121.46963595808484,122.48631449998356,,,,,,,,,,,,,,,,,,,,,albert,,C,2026-03-30_11h00.16.944,asymmetry_final_v2,2024.2.4,120,2026-03-30 11h00.48.069449 -0400,
18,18,0,1,1,baseline,10,1.1,-0.18,3.0,-0.128,curv,curv_flat,0.0,0.0,-0.18,pen,input_data/stims/Shape_1.10_3.00.png,input_data/stims/Shape_0.00_2.00.png,input_data/stims/Shape_4.00_2.00.png,-1,1,-1.0,1.0,-1,up,6.8413888750365,None,up,1.2302633330691606,None,None,None,"['right', 'right', 'left', 'right']","[0.41919216699898243, 1.72232066700235, 2.12973708298523, 2.4656322499504313]","[0.23920504096895456, 0.11599554098211229, None, 0.048196625080890954]",up,3.081003375002183,None,0,0,0,0,0,18,18,10,122.48631449998356,,,,,,,,,,,,,,,,,122.48067762504797,0.0010684579610824585,123.57266358297784,123.57271879108157,123.60335854103323,124.63784108299296,124.63192829105537,124.63221254106611,0.00029904197435826063,125.9741015000036,125.97532191604842,126.0405861249892,126.0405861249892,126.0405861249892,126.0405861249892,126.0405861249892,126.0405861249892,126.0405861249892,129.12561716604978,"[-0.128, -0.128, -0.128, -0.128, -0.128, -0.128, -0.128, -0.128, -0.128, -0.128, -0.128, -0.128, -0.128, -0.128, -0.128, -0.128, -0.128, -0.128, -0.128, -0.128, -0.128, -0.128, -0.128, -0.128, -0.128, -0.128, -0.128, -0.128, -0.128, -0.128, -0.128, -0.128, -0.128, -0.128, -0.128, -0.128, -0.128, -0.128, -0.128, -0.128, -0.124, -0.12, -0.116, -0.112, -0.108, -0.104, -0.1, -0.096, -0.092, -0.088, -0.084, -0.08, -0.076, -0.072, -0.068, -0.064, -0.06, -0.056, -0.052, -0.052, -0.052, -0.052, -0.052, -0.052, -0.052, -0.052, -0.052, -0.052, -0.052, -0.052, -0.052, -0.052, -0.052, -0.052, -0.052, -0.052, -0.052, -0.052, -0.052, -0.052, -0.052, -0.052, -0.052, -0.052, -0.052, -0.052, -0.052, -0.052, -0.052, -0.052, -0.052, -0.052, -0.052, -0.052, -0.052, -0.052, -0.052, -0.052, -0.052, -0.052, -0.052, -0.052, -0.052, -0.052, -0.052, -0.052, -0.052, -0.052, -0.052, -0.052, -0.052, -0.052, -0.052, -0.052, -0.052, -0.052, -0.052, -0.052, -0.052, -0.052, -0.052, -0.052, -0.052, -0.052, -0.052, -0.052, -0.052, -0.052, -0.052, -0.052, -0.052, -0.052, -0.052, -0.052, -0.052, -0.052, -0.052, -0.052, -0.052, -0.052, -0.052, -0.052, -0.052, -0.052, -0.052, -0.052, -0.052, -0.048, -0.044, -0.04, -0.036, -0.032, -0.028, -0.024, -0.02, -0.016, -0.016, -0.016, -0.016, -0.016, -0.016, -0.016, -0.016, -0.016, -0.016, -0.016, -0.016, -0.016, -0.016, -0.016, -0.016, -0.016, -0.016, -0.016, -0.016, -0.016, -0.016, -0.016, -0.016, -0.016, -0.016, -0.02, -0.024, -0.028, -0.032, -0.036, -0.04, -0.044, -0.048, -0.052, -0.052, -0.052, -0.052, -0.052, -0.052, -0.052, -0.052, -0.052, -0.052, -0.052, -0.052, -0.052, -0.052, -0.052, -0.052, -0.052, -0.052, -0.048, -0.044, -0.04, -0.04, -0.04, -0.04, -0.04, -0.04, -0.04, -0.04, -0.04, -0.04, -0.04, -0.04, -0.04, -0.04, -0.04, -0.04, -0.04, -0.04, -0.04, -0.04, -0.04, -0.04, -0.04, -0.04, -0.04, -0.04, -0.04, -0.04, -0.04, -0.04, -0.04, -0.04, -0.04, -0.04, -0.04, -0.04, -0.04, -0.04, -0.04, -0.04, -0.04, -0.04, -0.04, -0.04, -0.04, -0.04, -0.04, -0.04, -0.04, -0.04, -0.04]",None,None,"['right', 'right', 'left', 'right']","[0.41919216699898243, 1.72232066700235, 2.12973708298523, 2.4656322499504313]","[0.23920504096895456, 0.11599554098211229, None, 0.048196625080890954]",up,3.081003375002183,None,129.1261785000097,129.13284962507896,129.41935320803896,129.41279804101214,129.41289241600316,129.41935320803896,,130.41953829105478,,130.41272141598165,1,1,,,129.41935320803896,130.41953829105478,,,,,,,,,,,,,,,,,,,albert,,C,2026-03-30_11h00.16.944,asymmetry_final_v2,2024.2.4,120,2026-03-30 11h00.48.069449 -0400,
19,19,0,1,1,baseline,0,0.1,-0.38,1.0,-0.328,curv,curv_flat,0.0,0.0,-0.38,pen,input_data/stims/Shape_0.10_1.00.png,input_data/stims/Shape_0.00_2.00.png,input_data/stims/Shape_4.00_2.00.png,-1,1,-1.0,-1.0,-1,up,6.8413888750365,None,up,1.2302633330691606,None,None,None,"['left', 'right']","[0.416809624992311, 0.7763773330952972]","[None, 0.4318923339014873]",up,1.2337683330988511,None,0,0,0,0,0,19,19,0,130.41953829105478,,,,,,,,,,,,,,,,,130.41361733304802,0.0008781669894233346,131.35555241606198,131.3556003330741,131.3922296660021,132.43497579102404,132.42927554098424,132.42955250001978,0.0002969589550048113,133.82154258305673,133.8227590000024,133.8770595829701,133.8770595829701,133.8770595829701,133.8770595829701,133.8770595829701,133.8770595829701,133.8770595829701,135.11622541607358,"[-0.328, -0.328, -0.328, -0.328, -0.328, -0.328, -0.328, -0.328, -0.328, -0.328, -0.328, -0.328, -0.328, -0.328, -0.328, -0.328, -0.328, -0.328, -0.328, -0.328, -0.328, -0.328, -0.328, -0.328, -0.328, -0.328, -0.328, -0.328, -0.328, -0.328, -0.328, -0.328, -0.328, -0.328, -0.328, -0.328, -0.328, -0.328, -0.328, -0.328, -0.328, -0.328, -0.328, -0.332, -0.336, -0.34, -0.344, -0.348, -0.352, -0.356, -0.36, -0.364, -0.368, -0.372, -0.376, -0.38, -0.384, -0.388, -0.392, -0.392, -0.392, -0.392, -0.392, -0.392, -0.392, -0.392, -0.392, -0.392, -0.392, -0.392, -0.392, -0.388, -0.384, -0.38, -0.376, -0.372, -0.368, -0.364, -0.36, -0.356, -0.352, -0.348, -0.344, -0.34, -0.336, -0.332, -0.328, -0.324, -0.32, -0.316, -0.312, -0.308, -0.304, -0.3, -0.296, -0.292, -0.288, -0.284, -0.28, -0.276, -0.272, -0.268, -0.264, -0.26, -0.256, -0.256, -0.256, -0.256]",None,None,"['left', 'right']","[0.416809624992311, 0.7763773330952972]","[None, 0.4318923339014873]",up,1.2337683330988511,None,135.11661016603466,135.12321654101834,135.3702146250289,135.3629001660738,135.363017625059,135.3702146250289,,136.39587116602343,,136.38526791601907,1,1,,,135.3702146250289,136.39587116602343,,,,,,,,,,,,,,,,,,,albert,,C,2026-03-30_11h00.16.944,asymmetry_final_v2,2024.2.4,120,2026-03-30 11h00.48.069449 -0400,
20,20,0,1,1,baseline,9,0.9,-0.22,1.0,0.092,curv,flat_curv,0.0,0.0,0.22,pen,input_data/stims/Shape_0.90_1.00.png,input_data/stims/Shape_4.00_2.00.png,input_data/stims/Shape_0.00_2.00.png,-1,-1,1.0,-1.0,-1,up,6.8413888750365,None,up,1.2302633330691606,None,None,None,['right'],[0.7623075830051675],[0.39144662499893457],up,1.153754208004102,None,0,0,0,0,0,20,20,9,136.39587116602343,,,,,,,,,,,,,,,,,136.38614166597836,0.0008575830142945051,137.37808008305728,137.37813320802525,137.40944299998228,138.48532220802736,138.4800566660706,138.48039187502582,0.00034629192668944597,139.97237004106864,139.9737025409704,140.03338100004476,140.03338100004476,140.03338100004476,140.03338100004476,140.03338100004476,140.03338100004476,140.03338100004476,141.19747637503315,"[0.092, 0.092, 0.092, 0.092, 0.092, 0.092, 0.092, 0.092, 0.092, 0.092, 0.092, 0.092, 0.092, 0.092, 0.092, 0.092, 0.092, 0.092, 0.092, 0.092, 0.092, 0.092, 0.092, 0.092, 0.092, 0.092, 0.092, 0.092, 0.092, 0.092, 0.092, 0.092, 0.092, 0.092, 0.092, 0.092, 0.092, 0.092, 0.092, 0.092, 0.092, 0.092, 0.092, 0.092, 0.092, 0.092, 0.092, 0.092, 0.092, 0.092, 0.092, 0.092, 0.092, 0.092, 0.092, 0.092, 0.092, 0.092, 0.092, 0.092, 0.092, 0.092, 0.092, 0.092, 0.092, 0.092, 0.092, 0.092, 0.096, 0.1, 0.104, 0.108, 0.112, 0.116, 0.12, 0.124, 0.128, 0.132, 0.136, 0.14, 0.144, 0.148, 0.152, 0.156, 0.16, 0.164, 0.168, 0.172, 0.176, 0.18, 0.184, 0.188, 0.192, 0.196, 0.2, 0.204, 0.208, 0.212, 0.212]",None,None,['right'],[0.7623075830051675],[0.39144662499893457],up,1.153754208004102,None,141.1978005829733,141.20540333306417,141.45316645805724,141.44631600007415,141.44643337500747,141.45316645805724,,142.4688000830356,,142.46300841600168,1,1,,,141.45316645805724,142.4688000830356,,,,,,,,,,,,,,,,,,,albert,,C,2026-03-30_11h00.16.944,asymmetry_final_v2,2024.2.4,120,2026-03-30 11h00.48.069449 -0400,
21,21,0,1,1,baseline,23,2.3,0.06,3.0,0.14,flat,flat_curv,0.0,0.0,-0.06,rew,input_data/stims/Shape_2.30_3.00.png,input_data/stims/Shape_4.00_2.00.png,input_data/stims/Shape_0.00_2.00.png,1,-1,1.0,1.0,1,up,6.8413888750365,None,up,1.2302633330691606,None,None,None,['left'],[0.6715735830366611],[None],up,1.7862498740432784,None,0,0,0,0,0,21,21,23,142.4688000830356,,,,,,,,,,,,,,,,,142.4639369159704,0.0009064580081030726,143.555811624974,143.55585495801643,143.59089637501165,144.6288296249695,144.6218836250482,144.6221675410634,0.0003061669413000345,146.06417799997143,146.0654860000359,146.12833945802413,146.12833945802413,146.12833945802413,146.12833945802413,146.12833945802413,146.12833945802413,146.12833945802413,147.9220036250772,"[0.14, 0.14, 0.14, 0.14, 0.14, 0.14, 0.14, 0.14, 0.14, 0.14, 0.14, 0.14, 0.14, 0.14, 0.14, 0.14, 0.14, 0.14, 0.14, 0.14, 0.14, 0.14, 0.14, 0.14, 0.14, 0.14, 0.14, 0.14, 0.14, 0.14, 0.14, 0.14, 0.14, 0.14, 0.14, 0.14, 0.14, 0.14, 0.14, 0.14, 0.14, 0.14, 0.14, 0.14, 0.14, 0.14, 0.14, 0.14, 0.14, 0.14, 0.14, 0.14, 0.14, 0.14, 0.14, 0.14, 0.14, 0.14, 0.14, 0.14, 0.14, 0.14, 0.14, 0.136, 0.132, 0.128, 0.124, 0.12, 0.116, 0.112, 0.108, 0.104, 0.1, 0.096, 0.092, 0.088, 0.084, 0.08, 0.076, 0.072, 0.068, 0.064, 0.06, 0.056, 0.052, 0.048, 0.044, 0.04, 0.036, 0.032, 0.028, 0.024, 0.024, 0.024, 0.024, 0.024, 0.024, 0.024, 0.024, 0.024, 0.024, 0.024, 0.024, 0.024, 0.024, 0.024, 0.024, 0.024, 0.024, 0.024, 0.024, 0.024, 0.024, 0.024, 0.024, 0.024, 0.024, 0.024, 0.024, 0.024, 0.024, 0.024, 0.024, 0.024, 0.024, 0.024, 0.024, 0.024, 0.024, 0.024, 0.024, 0.024, 0.024, 0.024, 0.024, 0.024, 0.024, 0.024, 0.024, 0.024, 0.024, 0.024, 0.024, 0.024, 0.024, 0.024, 0.024, 0.024, 0.024, 0.024, 0.024, 0.024, 0.024, 0.024, 0.024, 0.024, 0.024, 0.024, 0.024, 0.024]",None,None,['left'],[0.6715735830366611],[None],up,1.7862498740432784,None,147.92246479098685,147.93138820806053,148.18766875006258,148.1796295410022,148.17975274997298,148.18766875006258,,149.1867089580046,,149.17977124999743,0,-1,,,,,148.18766875006258,149.1867089580046,,,,,,,,,,,,,,,,,albert,,C,2026-03-30_11h00.16.944,asymmetry_final_v2,2024.2.4,120,2026-03-30 11h00.48.069449 -0400,
22,22,0,1,1,baseline,25,2.5,0.1,1.0,0.264,flat,flat_curv,0.0,0.0,-0.1,rew,input_data/stims/Shape_2.50_1.00.png,input_data/stims/Shape_4.00_2.00.png,input_data/stims/Shape_0.00_2.00.png,1,-1,1.0,-1.0,1,up,6.8413888750365,None,up,1.2302633330691606,None,None,None,['left'],[0.46783604205120355],[None],up,1.8433400000212714,None,0,0,0,0,0,22,22,25,149.1867089580046,,,,,,,,,,,,,,,,,149.1807322499808,0.0009502909379079938,150.22272154106759,150.2227702080272,150.25485937506892,151.39632870804053,151.38953279098496,151.38975758303422,0.00023512495681643486,152.83168983308133,152.83285929099657,152.8915597080486,152.8915597080486,152.8915597080486,152.8915597080486,152.8915597080486,152.8915597080486,152.8915597080486,154.7375779580325,"[0.264, 0.264, 0.264, 0.264, 0.264, 0.264, 0.264, 0.264, 0.264, 0.264, 0.264, 0.264, 0.264, 0.264, 0.264, 0.264, 0.264, 0.264, 0.264, 0.264, 0.264, 0.264, 0.264, 0.264, 0.264, 0.264, 0.264, 0.264, 0.264, 0.264, 0.264, 0.264, 0.264, 0.264, 0.264, 0.264, 0.264, 0.264, 0.264, 0.264, 0.264, 0.264, 0.26, 0.256, 0.252, 0.248, 0.244, 0.24, 0.236, 0.232, 0.228, 0.224, 0.22, 0.216, 0.212, 0.208, 0.204, 0.2, 0.196, 0.192, 0.188, 0.184, 0.18, 0.176, 0.172, 0.168, 0.164, 0.16, 0.156, 0.152, 0.148, 0.144, 0.14, 0.136, 0.132, 0.128, 0.124, 0.12, 0.116, 0.112, 0.108, 0.104, 0.1, 0.096, 0.092, 0.088, 0.084, 0.08, 0.076, 0.072, 0.068, 0.064, 0.06, 0.056, 0.052, 0.048, 0.044, 0.04, 0.036, 0.032, 0.028, 0.024, 0.02, 0.016, 0.012, 0.008, 0.004, 0.0, -0.004, -0.008, -0.012, -0.016, -0.02, -0.024, -0.028, -0.032, -0.036, -0.04, -0.044, -0.048, -0.052, -0.056, -0.06, -0.064, -0.068, -0.072, -0.076, -0.08, -0.084, -0.088, -0.092, -0.096, -0.1, -0.104, -0.108, -0.112, -0.116, -0.12, -0.124, -0.128, -0.132, -0.136, -0.14, -0.144, -0.148, -0.152, -0.156, -0.16, -0.164, -0.164]",None,None,['left'],[0.46783604205120355],[None],up,1.8433400000212714,None,154.73794250003994,154.74483204097487,154.99544774997048,154.98508945805952,154.98521754099056,154.99544774997048,,156.00292179104872,,155.99623962503392,1,5,154.99544774997048,156.00292179104872,,,,,,,,,,,,,,,,,,,,,albert,,C,2026-03-30_11h00.16.944,asymmetry_final_v2,2024.2.4,120,2026-03-30 11h00.48.069449 -0400,
23,23,0,1,1,baseline,12,1.3,-0.14,1.0,-0.06,curv,curv_flat,0.0,0.0,-0.14,pen,input_data/stims/Shape_1.30_1.00.png,input_data/stims/Shape_0.00_2.00.png,input_data/stims/Shape_4.00_2.00.png,-1,1,-1.0,-1.0,-1,up,6.8413888750365,None,up,1.2302633330691606,None,None,None,['right'],[1.0361782080726698],[0.09999062493443489],up,1.740587415988557,None,0,0,0,0,0,23,23,12,156.00292179104872,,,,,,,,,,,,,,,,,155.9971285830252,0.0008720000041648746,156.98910108301789,156.9891433750745,157.0201422079699,158.08664112503175,158.0811071250355,158.08148625004105,0.00038962496910244226,159.4735053749755,159.47473041608464,159.5337001250591,159.5337001250591,159.5337001250591,159.5337001250591,159.5337001250591,159.5337001250591,159.5337001250591,161.28441391605884,"[-0.06, -0.06, -0.06, -0.06, -0.06, -0.06, -0.06, -0.06, -0.06, -0.06, -0.06, -0.06, -0.06, -0.06, -0.06, -0.06, -0.06, -0.06, -0.06, -0.06, -0.06, -0.06, -0.06, -0.06, -0.06, -0.06, -0.06, -0.06, -0.06, -0.06, -0.06, -0.06, -0.06, -0.06, -0.06, -0.06, -0.06, -0.06, -0.06, -0.06, -0.06, -0.06, -0.06, -0.06, -0.06, -0.06, -0.06, -0.06, -0.06, -0.06, -0.06, -0.06, -0.06, -0.06, -0.06, -0.06, -0.06, -0.06, -0.06, -0.06, -0.06, -0.06, -0.06, -0.06, -0.06, -0.06, -0.06, -0.06, -0.06, -0.06, -0.06, -0.06, -0.06, -0.06, -0.06, -0.06, -0.06, -0.06, -0.06, -0.06, -0.06, -0.06, -0.06, -0.06, -0.06, -0.06, -0.06, -0.06, -0.06, -0.06, -0.056, -0.052, -0.048, -0.044, -0.04, -0.036, -0.032, -0.028, -0.024, -0.024, -0.024, -0.024, -0.024, -0.024, -0.024, -0.024, -0.024, -0.024, -0.024, -0.024, -0.024, -0.024, -0.024, -0.024, -0.024, -0.024, -0.024, -0.024, -0.024, -0.024, -0.024, -0.024, -0.024, -0.024, -0.024, -0.024, -0.024, -0.024, -0.024, -0.024, -0.024, -0.024, -0.024, -0.024, -0.024, -0.024, -0.024, -0.024, -0.024, -0.024, -0.024, -0.024, -0.024, -0.024, -0.024, -0.024, -0.024, -0.024, -0.024, -0.024, -0.024, -0.024, -0.024, -0.024]",None,None,['right'],[1.0361782080726698],[0.09999062493443489],up,1.740587415988557,None,161.28488462499809,161.29201841598842,161.54569050006103,161.535231249989,161.5353531660512,161.54569050006103,,162.546186957974,,162.53578791604377,1,1,,,161.54569050006103,162.546186957974,,,,,,,,,,,,,,,,,,,albert,,C,2026-03-30_11h00.16.944,asymmetry_final_v2,2024.2.4,120,2026-03-30 11h00.48.069449 -0400,
24,24,0,1,1,baseline,2,0.3,-0.34,1.0,-0.228,curv,curv_flat,0.0,0.0,-0.34,pen,input_data/stims/Shape_0.30_1.00.png,input_data/stims/Shape_0.00_2.00.png,input_data/stims/Shape_4.00_2.00.png,-1,1,-1.0,-1.0,-1,up,6.8413888750365,None,up,1.2302633330691606,None,None,None,"['right', 'right', 'right', 'right', 'right']","[0.6121478739660233, 0.8457027910044417, 1.0549087489489466, 1.238263998995535, 1.3835158329457045]","[0.13520183402579278, 0.1199070829898119, 0.09204283403232694, 0.09195141692180187, None]",up,1.467678957968019,None,0,0,0,0,0,24,24,2,162.546186957974,,,,,,,,,,,,,,,,,162.53669695800636,0.000892583979293704,163.62857508298475,163.62862299999688,163.65906075004023,164.7287335000001,164.72091129107866,164.72119100007694,0.0002970839850604534,166.11319629102945,166.11449808301404,166.17293104098644,166.17293104098644,166.17293104098644,166.17293104098644,166.17293104098644,166.17293104098644,166.17293104098644,167.6425617079949,"[-0.228, -0.228, -0.228, -0.228, -0.228, -0.228, -0.228, -0.228, -0.228, -0.228, -0.228, -0.228, -0.228, -0.228, -0.228, -0.228, -0.228, -0.228, -0.228, -0.228, -0.228, -0.228, -0.228, -0.228, -0.228, -0.228, -0.228, -0.228, -0.228, -0.228, -0.228, -0.228, -0.228, -0.228, -0.228, -0.228, -0.228, -0.228, -0.228, -0.228, -0.228, -0.228, -0.228, -0.228, -0.228, -0.228, -0.228, -0.228, -0.228, -0.228, -0.228, -0.228, -0.228, -0.228, -0.224, -0.22, -0.216, -0.212, -0.208, -0.204, -0.2, -0.196, -0.192, -0.188, -0.188, -0.188, -0.188, -0.188, -0.188, -0.188, -0.188, -0.184, -0.18, -0.176, -0.172, -0.168, -0.164, -0.16, -0.156, -0.156, -0.156, -0.156, -0.156, -0.156, -0.156, -0.156, -0.156, -0.152, -0.148, -0.144, -0.14, -0.136, -0.132, -0.128, -0.124, -0.124, -0.124, -0.124, -0.124, -0.124, -0.124, -0.124, -0.12, -0.116, -0.112, -0.108, -0.104, -0.1, -0.096, -0.092, -0.092, -0.092, -0.092, -0.092, -0.092, -0.088, -0.084, -0.08, -0.076, -0.072, -0.068, -0.064, -0.06]",None,None,"['right', 'right', 'right', 'right', 'right']","[0.6121478739660233, 0.8457027910044417, 1.0549087489489466, 1.238263998995535, 1.3835158329457045]","[0.13520183402579278, 0.1199070829898119, 0.09204283403232694, 0.09195141692180187, None]",up,1.467678957968019,None,167.6428999999771,167.64872758300044,167.9028216250008,167.89644179097377,167.8965298749972,167.9028216250008,,168.90374316601083,,168.896775332978,1,1,,,167.9028216250008,168.90374316601083,,,,,,,,,,,,,,,,,,,albert,,C,2026-03-30_11h00.16.944,asymmetry_final_v2,2024.2.4,120,2026-03-30 11h00.48.069449 -0400,
25,25,0,1,1,baseline,6,0.7,-0.26,3.0,0.124,curv,curv_flat,0.0,0.0,-0.26,pen,input_data/stims/Shape_0.70_3.00.png,input_data/stims/Shape_0.00_2.00.png,input_data/stims/Shape_4.00_2.00.png,-1,1,1.0,1.0,-1,up,6.8413888750365,None,up,1.2302633330691606,None,None,None,['left'],[0.4581055409507826],[None],up,1.0175330829806626,None,0,0,0,0,0,25,25,6,168.90374316601083,,,,,,,,,,,,,,,,,168.89777475001756,0.0009845830500125885,169.9397668329766,169.9398214580724,169.97022458305582,171.08483695797622,171.07975558307953,171.0800196659984,0.0002733749570325017,172.37200175004546,172.37324045808055,172.43180383299477,172.43180383299477,172.43180383299477,172.43180383299477,172.43180383299477,172.43180383299477,172.43180383299477,173.45421774999704,"[0.124, 0.124, 0.124, 0.124, 0.124, 0.124, 0.124, 0.124, 0.124, 0.124, 0.124, 0.124, 0.124, 0.124, 0.124, 0.124, 0.124, 0.124, 0.124, 0.124, 0.124, 0.124, 0.124, 0.124, 0.124, 0.124, 0.124, 0.124, 0.124, 0.124, 0.124, 0.124, 0.124, 0.124, 0.124, 0.124, 0.124, 0.124, 0.124, 0.124, 0.124, 0.124, 0.124, 0.124, 0.124, 0.12, 0.116, 0.112, 0.108, 0.104, 0.1, 0.096, 0.092, 0.088, 0.084, 0.08, 0.076, 0.072, 0.068, 0.064, 0.06, 0.056, 0.052, 0.048, 0.044, 0.04, 0.036, 0.032, 0.028, 0.024, 0.02, 0.016, 0.012, 0.008, 0.004, 0.0, -0.004, -0.008, -0.012, -0.016, -0.02, -0.024, -0.028, -0.032, -0.036, -0.04, -0.044, -0.048, -0.052, -0.056, -0.056, -0.056]",None,None,['left'],[0.4581055409507826],[None],up,1.0175330829806626,None,173.45442487497348,173.46154354105238,173.71252416598145,173.70190262503456,173.7020110830199,173.71252416598145,,174.71315775008406,,174.70191112498287,1,1,,,173.71252416598145,174.71315775008406,,,,,,,,,,,,,,,,,,,albert,,C,2026-03-30_11h00.16.944,asymmetry_final_v2,2024.2.4,120,2026-03-30 11h00.48.069449 -0400,
26,26,0,1,1,baseline,3,0.3,-0.34,3.0,-0.044,curv,flat_curv,0.0,0.0,0.34,pen,input_data/stims/Shape_0.30_3.00.png,input_data/stims/Shape_4.00_2.00.png,input_data/stims/Shape_0.00_2.00.png,-1,-1,-1.0,1.0,-1,up,6.8413888750365,None,up,1.2302633330691606,None,None,None,['right'],[0.8685479989508167],[0.3594092089915648],up,1.252913665957749,None,0,0,0,0,0,26,26,3,174.71315775008406,,,,,,,,,,,,,,,,,174.7028227080591,0.0008969999616965652,175.79486141598318,175.79491841606796,175.82512983307242,176.8618732080795,176.8541313749738,176.8544198750751,0.0002914590295404196,178.2463020000141,178.24757091607898,178.3070336660603,178.3070336660603,178.3070336660603,178.3070336660603,178.3070336660603,178.3070336660603,178.3070336660603,179.5646059580613,"[-0.044, -0.044, -0.044, -0.044, -0.044, -0.044, -0.044, -0.044, -0.044, -0.044, -0.044, -0.044, -0.044, -0.044, -0.044, -0.044, -0.044, -0.044, -0.044, -0.044, -0.044, -0.044, -0.044, -0.044, -0.044, -0.044, -0.044, -0.044, -0.044, -0.044, -0.044, -0.044, -0.044, -0.044, -0.044, -0.044, -0.044, -0.044, -0.044, -0.044, -0.044, -0.044, -0.044, -0.044, -0.044, -0.044, -0.044, -0.044, -0.044, -0.044, -0.044, -0.044, -0.044, -0.044, -0.044, -0.044, -0.044, -0.044, -0.044, -0.044, -0.044, -0.044, -0.044, -0.044, -0.044, -0.044, -0.044, -0.044, -0.044, -0.044, -0.044, -0.044, -0.044, -0.044, -0.044, -0.044, -0.044, -0.044, -0.04, -0.036, -0.032, -0.028, -0.024, -0.02, -0.016, -0.012, -0.008, -0.004, 0.0, 0.004, 0.008, 0.012, 0.016, 0.02, 0.024, 0.028, 0.032, 0.036, 0.04, 0.044, 0.048, 0.052, 0.056, 0.06, 0.06, 0.06]",None,None,['right'],[0.8685479989508167],[0.3594092089915648],up,1.252913665957749,None,179.56523441604804,179.57669254101347,179.8683860830497,179.86270658299327,179.86278312501963,179.8683860830497,,180.87023954105098,,180.8638747080695,1,1,,,179.8683860830497,180.87023954105098,,,,,,,,,,,,,,,,,,,albert,,C,2026-03-30_11h00.16.944,asymmetry_final_v2,2024.2.4,120,2026-03-30 11h00.48.069449 -0400,
27,27,0,1,1,baseline,5,0.5,-0.3,1.0,-0.124,curv,flat_curv,0.0,0.0,0.3,pen,input_data/stims/Shape_0.50_1.00.png,input_data/stims/Shape_4.00_2.00.png,input_data/stims/Shape_0.00_2.00.png,-1,-1,-1.0,-1.0,-1,up,6.8413888750365,None,up,1.2302633330691606,None,None,None,['right'],[0.3579067909158766],[0.875388834043406],up,1.2332956249592826,None,0,0,0,0,0,27,27,5,180.87023954105098,,,,,,,,,,,,,,,,,180.86485983303282,0.0009769160533323884,181.95689291600138,181.95694595808163,181.98749829106964,182.98504812503234,182.97984295804054,182.9801519580651,0.0003173330333083868,184.4221202910412,184.42334504099563,184.48221504106186,184.48221504106186,184.48221504106186,184.48221504106186,184.48221504106186,184.48221504106186,184.48221504106186,185.72414879105054,"[-0.124, -0.124, -0.124, -0.124, -0.124, -0.124, -0.124, -0.124, -0.124, -0.124, -0.124, -0.124, -0.124, -0.124, -0.124, -0.124, -0.124, -0.124, -0.124, -0.124, -0.124, -0.124, -0.124, -0.124, -0.124, -0.124, -0.124, -0.124, -0.124, -0.124, -0.124, -0.124, -0.124, -0.124, -0.12, -0.116, -0.112, -0.108, -0.104, -0.1, -0.096, -0.092, -0.088, -0.084, -0.08, -0.076, -0.072, -0.068, -0.064, -0.06, -0.056, -0.052, -0.048, -0.044, -0.04, -0.036, -0.032, -0.028, -0.024, -0.02, -0.016, -0.012, -0.008, -0.004, 0.0, 0.004, 0.008, 0.012, 0.016, 0.02, 0.024, 0.028, 0.032, 0.036, 0.04, 0.044, 0.048, 0.052, 0.056, 0.06, 0.064, 0.068, 0.072, 0.076, 0.08, 0.084, 0.088, 0.092, 0.096, 0.1, 0.104, 0.108, 0.112, 0.116, 0.12, 0.124, 0.128, 0.132, 0.136, 0.14, 0.144, 0.148, 0.152, 0.156, 0.16, 0.164, 0.168, 0.172, 0.176, 0.176]",None,None,['right'],[0.3579067909158766],[0.875388834043406],up,1.2332956249592826,None,185.72438962501474,185.73115937504917,185.98696366604418,185.9802946660202,185.98038641607855,185.98696366604418,,186.996140458039,,186.9853910410311,1,1,,,185.98696366604418,186.996140458039,,,,,,,,,,,,,,,,,,,albert,,C,2026-03-30_11h00.16.944,asymmetry_final_v2,2024.2.4,120,2026-03-30 11h00.48.069449 -0400,
28,28,0,1,1,baseline,24,2.5,0.1,3.0,0.356,flat,curv_flat,0.0,0.0,0.1,rew,input_data/stims/Shape_2.50_3.00.png,input_data/stims/Shape_0.00_2.00.png,input_data/stims/Shape_4.00_2.00.png,1,1,1.0,1.0,1,up,6.8413888750365,None,up,1.2302633330691606,None,None,None,['left'],[0.5476135830394924],[None],up,0.9537530830129981,None,0,0,0,0,0,28,28,24,186.996140458039,,,,,,,,,,,,,,,,,186.98626754106954,0.0008576250402256846,187.92820133303758,187.92824649997056,187.95967470807955,189.045419165981,189.03889862506185,189.03919100004714,0.0003013749374076724,190.53122758306563,190.53248304105364,190.5878342910437,190.5878342910437,190.5878342910437,190.5878342910437,190.5878342910437,190.5878342910437,190.5878342910437,191.55000525002833,"[0.356, 0.356, 0.356, 0.356, 0.356, 0.356, 0.356, 0.356, 0.356, 0.356, 0.356, 0.356, 0.356, 0.356, 0.356, 0.356, 0.356, 0.356, 0.356, 0.356, 0.356, 0.356, 0.356, 0.356, 0.356, 0.356, 0.356, 0.356, 0.356, 0.356, 0.356, 0.356, 0.356, 0.356, 0.356, 0.356, 0.356, 0.356, 0.356, 0.356, 0.356, 0.356, 0.356, 0.356, 0.356, 0.356, 0.356, 0.356, 0.356, 0.356, 0.356, 0.356, 0.356, 0.356, 0.352, 0.348, 0.344, 0.34, 0.336, 0.332, 0.328, 0.324, 0.32, 0.316, 0.312, 0.308, 0.304, 0.3, 0.296, 0.292, 0.288, 0.284, 0.28, 0.276, 0.272, 0.268, 0.264, 0.26, 0.256, 0.256, 0.256, 0.256, 0.256, 0.256, 0.256]",None,None,['left'],[0.5476135830394924],[None],up,0.9537530830129981,None,191.55035695806146,191.5579294160707,191.88688945805188,191.8799848749768,191.88008716597687,191.88688945805188,,192.8862002909882,,192.88012233306654,1,5,191.88688945805188,192.8862002909882,,,,,,,,,,,,,,,,,,,,,albert,,C,2026-03-30_11h00.16.944,asymmetry_final_v2,2024.2.4,120,2026-03-30 11h00.48.069449 -0400,
29,29,0,1,1,baseline,28,2.9,0.18,1.0,0.38,flat,curv_flat,0.0,0.0,0.18,rew,input_data/stims/Shape_2.90_1.00.png,input_data/stims/Shape_0.00_2.00.png,input_data/stims/Shape_4.00_2.00.png,1,1,1.0,-1.0,1,up,6.8413888750365,None,up,1.2302633330691606,None,None,None,['left'],[0.48379091604147106],[None],up,1.2477748329984024,None,0,0,0,0,0,29,29,28,192.8862002909882,,,,,,,,,,,,,,,,,192.8808320000535,0.0007054170127958059,193.77273245807737,193.77278512506746,193.80446083308198,194.8796825830359,194.857323458069,194.85759683302604,0.00028187502175569534,196.25054020807147,196.25191404100042,196.3128980830079,196.3128980830079,196.3128980830079,196.3128980830079,196.3128980830079,196.3128980830079,196.3128980830079,197.5724149160087,"[0.38, 0.38, 0.38, 0.38, 0.38, 0.38, 0.38, 0.38, 0.38, 0.38, 0.38, 0.38, 0.38, 0.38, 0.38, 0.38, 0.38, 0.38, 0.38, 0.38, 0.38, 0.38, 0.38, 0.38, 0.38, 0.38, 0.38, 0.38, 0.38, 0.38, 0.38, 0.38, 0.38, 0.38, 0.38, 0.38, 0.38, 0.38, 0.38, 0.38, 0.38, 0.38, 0.38, 0.38, 0.38, 0.38, 0.38, 0.376, 0.372, 0.368, 0.364, 0.36, 0.356, 0.352, 0.348, 0.344, 0.34, 0.336, 0.332, 0.328, 0.324, 0.32, 0.316, 0.312, 0.308, 0.304, 0.3, 0.296, 0.292, 0.288, 0.284, 0.28, 0.276, 0.272, 0.268, 0.264, 0.26, 0.256, 0.252, 0.248, 0.244, 0.24, 0.236, 0.232, 0.228, 0.224, 0.22, 0.216, 0.212, 0.208, 0.204, 0.2, 0.196, 0.192, 0.188, 0.184, 0.18, 0.176, 0.172, 0.168, 0.164, 0.16]",None,None,['left'],[0.48379091604147106],[None],up,1.2477748329984024,None,197.57277233304922,197.58175912499428,197.83635487500578,197.8296759580262,197.82978316606022,197.83635487500578,,198.83717195806094,,198.83007825003006,1,5,197.83635487500578,198.83717195806094,,,,,,,,,,,,,,,,,,,,,albert,,C,2026-03-30_11h00.16.944,asymmetry_final_v2,2024.2.4,120,2026-03-30 11h00.48.069449 -0400,
30,30,0,1,1,baseline,15,1.5,-0.1,1.0,0.384,curv,flat_curv,0.0,0.0,0.1,pen,input_data/stims/Shape_1.50_1.00.png,input_data/stims/Shape_4.00_2.00.png,input_data/stims/Shape_0.00_2.00.png,-1,-1,1.0,-1.0,-1,up,6.8413888750365,None,up,1.2302633330691606,None,None,None,['left'],[0.5776344999903813],[None],up,1.0413905000314116,None,0,0,0,0,0,30,30,15,198.83717195806094,,,,,,,,,,,,,,,,,198.83106070803478,0.000971625093370676,199.7229767079698,199.72302970802411,199.7550392500125,200.75130287499633,200.74596383306198,200.74622295808513,0.0002660419559106231,202.1882366660284,202.18952241598163,202.24938733305316,202.24938733305316,202.24938733305316,202.24938733305316,202.24938733305316,202.24938733305316,202.24938733305316,203.293554999982,"[0.384, 0.384, 0.384, 0.384, 0.384, 0.384, 0.384, 0.384, 0.384, 0.384, 0.384, 0.384, 0.384, 0.384, 0.384, 0.384, 0.384, 0.384, 0.384, 0.384, 0.384, 0.384, 0.384, 0.384, 0.384, 0.384, 0.384, 0.384, 0.384, 0.384, 0.384, 0.384, 0.384, 0.384, 0.384, 0.384, 0.384, 0.384, 0.384, 0.384, 0.384, 0.384, 0.384, 0.384, 0.384, 0.384, 0.384, 0.384, 0.384, 0.384, 0.38, 0.376, 0.372, 0.368, 0.364, 0.36, 0.356, 0.352, 0.348, 0.344, 0.34, 0.336, 0.332, 0.328, 0.324, 0.32, 0.316, 0.312, 0.308, 0.304, 0.3, 0.296, 0.292, 0.288, 0.284, 0.28, 0.276, 0.272, 0.268, 0.264, 0.26, 0.256, 0.252, 0.248, 0.244, 0.24, 0.236, 0.232, 0.228, 0.224, 0.22, 0.22]",None,None,['left'],[0.5776344999903813],[None],up,1.0413905000314116,None,203.29386541608255,203.29934650007635,203.5549506250536,203.54730025003664,203.54742887499742,203.5549506250536,,204.55270529107656,,204.54662550007924,1,1,,,203.5549506250536,204.55270529107656,,,,,,,,,,,,,,,,,,,albert,,C,2026-03-30_11h00.16.944,asymmetry_final_v2,2024.2.4,120,2026-03-30 11h00.48.069449 -0400,
31,31,0,1,1,baseline,21,2.1,0.02,1.0,0.076,flat,flat_curv,0.0,0.0,-0.02,rew,input_data/stims/Shape_2.10_1.00.png,input_data/stims/Shape_4.00_2.00.png,input_data/stims/Shape_0.00_2.00.png,1,-1,1.0,-1.0,1,up,6.8413888750365,None,up,1.2302633330691606,None,None,None,['left'],[0.45659516600426286],[None],up,1.0346352079650387,None,0,0,0,0,0,31,31,21,204.55270529107656,,,,,,,,,,,,,,,,,204.54745920805726,0.0008232910186052322,205.58934325003065,205.5893910410814,205.62576091603842,206.62892220797949,206.62185495800804,206.62217354099266,0.00033133290708065033,208.06417879101355,208.0655329580186,208.12073495797813,208.12073495797813,208.12073495797813,208.12073495797813,208.12073495797813,208.12073495797813,208.12073495797813,209.16469908307772,"[0.076, 0.076, 0.076, 0.076, 0.076, 0.076, 0.076, 0.076, 0.076, 0.076, 0.076, 0.076, 0.076, 0.076, 0.076, 0.076, 0.076, 0.076, 0.076, 0.076, 0.076, 0.076, 0.076, 0.076, 0.076, 0.076, 0.076, 0.076, 0.076, 0.076, 0.076, 0.076, 0.076, 0.076, 0.076, 0.076, 0.076, 0.076, 0.076, 0.072, 0.068, 0.064, 0.06, 0.056, 0.052, 0.048, 0.044, 0.04, 0.036, 0.032, 0.028, 0.024, 0.02, 0.016, 0.012, 0.008, 0.004, 0.0, -0.004, -0.008, -0.012, -0.016, -0.02, -0.024, -0.028, -0.032, -0.036, -0.04, -0.044, -0.048, -0.052, -0.056, -0.06, -0.064, -0.068, -0.072, -0.076, -0.08, -0.084, -0.088, -0.092, -0.096, -0.1, -0.104, -0.104, -0.104, -0.104, -0.104, -0.104]",None,None,['left'],[0.45659516600426286],[None],up,1.0346352079650387,None,209.1650067080045,209.17123325006105,209.42013941600453,209.4132782079978,209.413365000044,209.42013941600453,,210.41975933301728,,210.4136432079831,1,5,209.42013941600453,210.41975933301728,,,,,,,,,,,,,,,,,,,,,albert,,C,2026-03-30_11h00.16.944,asymmetry_final_v2,2024.2.4,120,2026-03-30 11h00.48.069449 -0400,
32,32,0,1,1,baseline,26,2.7,0.14,3.0,0.072,flat,curv_flat,0.0,0.0,0.14,rew,input_data/stims/Shape_2.70_3.00.png,input_data/stims/Shape_0.00_2.00.png,input_data/stims/Shape_4.00_2.00.png,1,1,1.0,1.0,1,up,6.8413888750365,None,up,1.2302633330691606,None,None,None,['right'],[0.4853288739686832],[None],up,0.9007621660130098,None,0,0,0,0,0,32,32,26,210.41975933301728,,,,,,,,,,,,,,,,,210.41451445803978,0.000844749971292913,211.35637854097877,211.3564233330544,211.38945904106367,212.69667970808223,212.67383887502365,212.6741241660202,0.0002993750385940075,213.96610483305994,213.9673308749916,214.02795575000346,214.02795575000346,214.02795575000346,214.02795575000346,214.02795575000346,214.02795575000346,214.02795575000346,214.9317980830092,"[0.072, 0.072, 0.072, 0.072, 0.072, 0.072, 0.072, 0.072, 0.072, 0.072, 0.072, 0.072, 0.072, 0.072, 0.072, 0.072, 0.072, 0.072, 0.072, 0.072, 0.072, 0.072, 0.072, 0.072, 0.072, 0.072, 0.072, 0.072, 0.072, 0.072, 0.072, 0.072, 0.072, 0.072, 0.072, 0.072, 0.072, 0.072, 0.072, 0.072, 0.072, 0.072, 0.072, 0.072, 0.072, 0.072, 0.076, 0.08, 0.084, 0.088, 0.092, 0.096, 0.1, 0.104, 0.108, 0.112, 0.116, 0.12, 0.124, 0.128, 0.132, 0.136, 0.14, 0.144, 0.148, 0.152, 0.156, 0.16, 0.164, 0.168, 0.172, 0.176, 0.18]",None,None,['right'],[0.4853288739686832],[None],up,0.9007621660130098,None,214.93206683301833,214.94634437502827,215.19694749999326,215.18556975002866,215.1856784580741,215.19694749999326,,216.19583670806605,,216.18676225002855,1,5,215.19694749999326,216.19583670806605,,,,,,,,,,,,,,,,,,,,,albert,,C,2026-03-30_11h00.16.944,asymmetry_final_v2,2024.2.4,120,2026-03-30 11h00.48.069449 -0400,
33,33,0,1,1,baseline,13,1.3,-0.14,3.0,-0.36,curv,flat_curv,0.0,0.0,0.14,pen,input_data/stims/Shape_1.30_3.00.png,input_data/stims/Shape_4.00_2.00.png,input_data/stims/Shape_0.00_2.00.png,-1,-1,-1.0,1.0,-1,up,6.8413888750365,None,up,1.2302633330691606,None,None,None,['right'],[0.45991958293598145],[None],up,2.2233673749724403,None,0,0,0,0,0,33,33,13,216.19583670806605,,,,,,,,,,,,,,,,,216.1876826660009,0.0008997919503599405,217.07960137503687,217.07964683300816,217.11106995807495,218.11240149999503,218.104779041023,218.10508875001688,0.0003273329930379987,219.49698929104488,219.49821641598828,219.55694300006144,219.55694300006144,219.55694300006144,219.55694300006144,219.55694300006144,219.55694300006144,219.55694300006144,221.78218341607135,"[-0.36, -0.36, -0.36, -0.36, -0.36, -0.36, -0.36, -0.36, -0.36, -0.36, -0.36, -0.36, -0.36, -0.36, -0.36, -0.36, -0.36, -0.36, -0.36, -0.36, -0.36, -0.36, -0.36, -0.36, -0.36, -0.36, -0.36, -0.36, -0.36, -0.36, -0.36, -0.36, -0.36, -0.36, -0.36, -0.36, -0.36, -0.36, -0.36, -0.36, -0.36, -0.36, -0.36, -0.36, -0.356, -0.352, -0.348, -0.344, -0.34, -0.336, -0.332, -0.328, -0.324, -0.32, -0.316, -0.312, -0.308, -0.304, -0.3, -0.296, -0.292, -0.288, -0.284, -0.28, -0.276, -0.272, -0.268, -0.264, -0.26, -0.256, -0.252, -0.248, -0.244, -0.24, -0.236, -0.232, -0.228, -0.224, -0.22, -0.216, -0.212, -0.208, -0.204, -0.2, -0.196, -0.192, -0.188, -0.184, -0.18, -0.176, -0.172, -0.168, -0.164, -0.16, -0.156, -0.152, -0.148, -0.144, -0.14, -0.136, -0.132, -0.128, -0.124, -0.12, -0.116, -0.112, -0.108, -0.104, -0.1, -0.096, -0.092, -0.088, -0.084, -0.08, -0.076, -0.072, -0.068, -0.064, -0.06, -0.056, -0.052, -0.048, -0.044, -0.04, -0.036, -0.032, -0.028, -0.024, -0.02, -0.016, -0.012, -0.008, -0.004, 0.0, 0.004, 0.008, 0.012, 0.016, 0.02, 0.024, 0.028, 0.032, 0.036, 0.04, 0.044, 0.048, 0.052, 0.056, 0.06, 0.064, 0.068, 0.072, 0.076, 0.08, 0.084, 0.088, 0.092, 0.096, 0.1, 0.104, 0.108, 0.112, 0.116, 0.12, 0.124, 0.128, 0.132, 0.136, 0.14, 0.144, 0.148, 0.152, 0.156, 0.16, 0.164, 0.168, 0.172, 0.176, 0.18]",None,None,['right'],[0.45991958293598145],[None],up,2.2233673749724403,None,221.78258704103064,221.79043491603807,222.0374066659715,222.03064333298244,222.03076333308127,222.0374066659715,,223.11366012506187,,223.097584458068,1,1,,,222.0374066659715,223.11366012506187,,,,,,,,,,,,,,,,,,,albert,,C,2026-03-30_11h00.16.944,asymmetry_final_v2,2024.2.4,120,2026-03-30 11h00.48.069449 -0400,
34,34,0,1,1,baseline,20,2.1,0.02,1.0,0.368,flat,curv_flat,0.0,0.0,0.02,rew,input_data/stims/Shape_2.10_1.00.png,input_data/stims/Shape_0.00_2.00.png,input_data/stims/Shape_4.00_2.00.png,1,1,1.0,-1.0,1,up,6.8413888750365,None,up,1.2302633330691606,None,None,None,['left'],[0.6024587909923866],[None],up,1.3256149579538032,None,0,0,0,0,0,34,34,20,223.11366012506187,,,,,,,,,,,,,,,,,223.09831129107624,0.0007190420292317867,224.0902665409958,224.0903073750669,224.12099658302031,225.11893445800524,225.11365283303894,225.1139840830583,0.0003447079798206687,226.55592754099052,226.5572409160668,226.6179587499937,226.6179587499937,226.6179587499937,226.6179587499937,226.6179587499937,226.6179587499937,226.6179587499937,227.95004095800687,"[0.368, 0.368, 0.368, 0.368, 0.368, 0.368, 0.368, 0.368, 0.368, 0.368, 0.368, 0.368, 0.368, 0.368, 0.368, 0.368, 0.368, 0.368, 0.368, 0.368, 0.368, 0.368, 0.368, 0.368, 0.368, 0.368, 0.368, 0.368, 0.368, 0.368, 0.368, 0.368, 0.368, 0.368, 0.368, 0.368, 0.368, 0.368, 0.368, 0.368, 0.368, 0.368, 0.368, 0.368, 0.368, 0.368, 0.368, 0.368, 0.368, 0.368, 0.368, 0.368, 0.368, 0.364, 0.36, 0.356, 0.352, 0.348, 0.344, 0.34, 0.336, 0.332, 0.328, 0.324, 0.32, 0.316, 0.312, 0.308, 0.304, 0.3, 0.296, 0.292, 0.288, 0.284, 0.28, 0.276, 0.272, 0.268, 0.264, 0.26, 0.256, 0.252, 0.248, 0.244, 0.24, 0.236, 0.232, 0.228, 0.224, 0.22, 0.216, 0.212, 0.208, 0.204, 0.2, 0.196, 0.192, 0.188, 0.184, 0.18, 0.176, 0.172, 0.168, 0.164, 0.16, 0.156]",None,None,['left'],[0.6024587909923866],[None],up,1.3256149579538032,None,227.95031924999785,227.95699887501542,228.20384912507143,228.1971185830189,228.19724324997514,228.20384912507143,,229.20357133308426,,229.19741979101673,1,5,228.20384912507143,229.20357133308426,,,,,,,,,,,,,,,,,,,,,albert,,C,2026-03-30_11h00.16.944,asymmetry_final_v2,2024.2.4,120,2026-03-30 11h00.48.069449 -0400,
35,35,0,1,1,baseline,27,2.7,0.14,3.0,-0.324,flat,flat_curv,0.0,0.0,-0.14,rew,input_data/stims/Shape_2.70_3.00.png,input_data/stims/Shape_4.00_2.00.png,input_data/stims/Shape_0.00_2.00.png,1,-1,-1.0,1.0,1,up,6.8413888750365,None,up,1.2302633330691606,None,None,None,"['left', 'right']","[0.5757627909770235, 0.7277914580190554]","[None, 0.5239386669127271]",up,1.2517301249317825,None,0,0,0,0,0,35,35,27,229.20357133308426,,,,,,,,,,,,,,,,,229.1983178750379,0.0008888330776244402,230.14030400000047,230.14034970803186,230.1716557079926,231.179038916016,231.17232033307664,231.1726382500492,0.00033766706474125385,232.6146590000717,232.61611991608515,232.6741532080341,232.6741532080341,232.6741532080341,232.6741532080341,232.6741532080341,232.6741532080341,232.6741532080341,233.93153720803093,"[-0.324, -0.324, -0.324, -0.324, -0.324, -0.324, -0.324, -0.324, -0.324, -0.324, -0.324, -0.324, -0.324, -0.324, -0.324, -0.324, -0.324, -0.324, -0.324, -0.324, -0.324, -0.324, -0.324, -0.324, -0.324, -0.324, -0.324, -0.324, -0.324, -0.324, -0.324, -0.324, -0.324, -0.324, -0.324, -0.324, -0.324, -0.324, -0.324, -0.324, -0.324, -0.324, -0.324, -0.324, -0.324, -0.324, -0.324, -0.324, -0.324, -0.324, -0.324, -0.324, -0.324, -0.324, -0.328, -0.332, -0.336, -0.34, -0.344, -0.348, -0.352, -0.356, -0.36, -0.364, -0.368, -0.364, -0.36, -0.356, -0.352, -0.348, -0.344, -0.34, -0.336, -0.332, -0.328, -0.324, -0.32, -0.316, -0.312, -0.308, -0.304, -0.3, -0.296, -0.292, -0.288, -0.284, -0.28, -0.276, -0.272, -0.268, -0.264, -0.26, -0.256, -0.252, -0.248, -0.244, -0.24, -0.236, -0.232, -0.228, -0.224, -0.22, -0.216, -0.212, -0.208, -0.204, -0.2, -0.196, -0.192, -0.188, -0.188]",None,None,"['left', 'right']","[0.5757627909770235, 0.7277914580190554]","[None, 0.5239386669127271]",up,1.2517301249317825,None,233.9318703750614,233.93983008305077,234.20415075006895,234.19735891604796,234.1974733750103,234.20415075006895,,235.20465287507977,,235.19773666607216,1,5,234.20415075006895,235.20465287507977,,,,,,,,,,,,,,,,,,,,,albert,,C,2026-03-30_11h00.16.944,asymmetry_final_v2,2024.2.4,120,2026-03-30 11h00.48.069449 -0400,
36,36,0,1,1,baseline,36,3.7,0.34,1.0,-0.028,flat,curv_flat,0.0,0.0,0.34,rew,input_data/stims/Shape_3.70_1.00.png,input_data/stims/Shape_0.00_2.00.png,input_data/stims/Shape_4.00_2.00.png,1,1,-1.0,-1.0,1,up,6.8413888750365,None,up,1.2302633330691606,None,None,None,['right'],[0.5347004579380155],[None],up,1.2263095829403028,None,0,0,0,0,0,36,36,36,235.20465287507977,,,,,,,,,,,,,,,,,235.1987387080444,0.0009855839889496565,236.19069212500472,236.19073891604785,236.22395383298863,237.2806734580081,237.26492666604463,237.26524445798714,0.0003355839289724827,238.55720883305185,238.5584317080211,238.61639229103457,238.61639229103457,238.61639229103457,238.61639229103457,238.61639229103457,238.61639229103457,238.61639229103457,239.84582325001247,"[-0.028, -0.028, -0.028, -0.028, -0.028, -0.028, -0.028, -0.028, -0.028, -0.028, -0.028, -0.028, -0.028, -0.028, -0.028, -0.028, -0.028, -0.028, -0.028, -0.028, -0.028, -0.028, -0.028, -0.028, -0.028, -0.028, -0.028, -0.028, -0.028, -0.028, -0.028, -0.028, -0.028, -0.028, -0.028, -0.028, -0.028, -0.028, -0.028, -0.028, -0.028, -0.028, -0.028, -0.028, -0.028, -0.028, -0.028, -0.028, -0.028, -0.028, -0.028, -0.028, -0.028, -0.028, -0.024, -0.02, -0.016, -0.012, -0.008, -0.004, 0.0, 0.004, 0.008, 0.012, 0.016, 0.02, 0.024, 0.028, 0.032, 0.036, 0.04, 0.044, 0.048, 0.052, 0.056, 0.06, 0.064, 0.068, 0.072, 0.076, 0.08, 0.084, 0.088, 0.092, 0.096, 0.1, 0.104, 0.108, 0.112, 0.116, 0.12, 0.124, 0.128, 0.132, 0.136, 0.14, 0.144, 0.148, 0.152, 0.156, 0.16, 0.164, 0.168, 0.172, 0.176, 0.18, 0.184, 0.188, 0.192, 0.196, 0.2, 0.204, 0.208]",None,None,['right'],[0.5347004579380155],[None],up,1.2263095829403028,None,239.8461476659868,239.8504537079716,240.10438066604547,240.09735012508463,240.0974750830792,240.10438066604547,,241.1038002910791,,241.09720008308068,1,5,240.10438066604547,241.1038002910791,,,,,,,,,,,,,,,,,,,,,albert,,C,2026-03-30_11h00.16.944,asymmetry_final_v2,2024.2.4,120,2026-03-30 11h00.48.069449 -0400,
37,37,0,1,1,baseline,33,3.3,0.26,3.0,-0.176,flat,flat_curv,0.0,0.0,-0.26,rew,input_data/stims/Shape_3.30_3.00.png,input_data/stims/Shape_4.00_2.00.png,input_data/stims/Shape_0.00_2.00.png,1,-1,-1.0,1.0,1,up,6.8413888750365,None,up,1.2302633330691606,None,None,None,"['right', 'left']","[0.41159141703974456, 0.4700461670290679]","[0.03516400000080466, None]",up,0.8902017079526559,None,0,0,0,0,0,37,37,33,241.1038002910791,,,,,,,,,,,,,,,,,241.09820025006775,0.0009748340817168355,242.19019937503617,242.19025358301587,242.22188312502112,243.31970420805737,243.3144473329885,243.3147629579762,0.0003261669771745801,244.65671933302656,244.65795745805372,244.71845112508163,244.71845112508163,244.71845112508163,244.71845112508163,244.71845112508163,244.71845112508163,244.71845112508163,245.61760895804036,"[-0.176, -0.176, -0.176, -0.176, -0.176, -0.176, -0.176, -0.176, -0.176, -0.176, -0.176, -0.176, -0.176, -0.176, -0.176, -0.176, -0.176, -0.176, -0.176, -0.176, -0.176, -0.176, -0.176, -0.176, -0.176, -0.176, -0.176, -0.176, -0.176, -0.176, -0.176, -0.176, -0.176, -0.176, -0.176, -0.176, -0.176, -0.176, -0.176, -0.172, -0.168, -0.164, -0.164, -0.164, -0.168, -0.172, -0.176, -0.18, -0.184, -0.188, -0.192, -0.196, -0.2, -0.204, -0.208, -0.212, -0.216, -0.22, -0.224, -0.228, -0.232, -0.236, -0.24, -0.244, -0.248, -0.252, -0.256, -0.26, -0.264, -0.268, -0.272, -0.276, -0.28, -0.284, -0.288, -0.292, -0.296, -0.3, -0.304]",None,None,"['right', 'left']","[0.41159141703974456, 0.4700461670290679]","[0.03516400000080466, None]",up,0.8902017079526559,None,245.6178884160472,245.62474975001533,245.8959910409758,245.8861482500797,245.88640154106542,245.8959910409758,,246.89670837507583,,246.8867006660439,1,5,245.8959910409758,246.89670837507583,,,,,,,,,,,,,,,,,,,,,albert,,C,2026-03-30_11h00.16.944,asymmetry_final_v2,2024.2.4,120,2026-03-30 11h00.48.069449 -0400,
38,38,0,1,1,baseline,19,1.9,-0.02,3.0,0.316,curv,flat_curv,0.0,0.0,0.02,pen,input_data/stims/Shape_1.90_3.00.png,input_data/stims/Shape_4.00_2.00.png,input_data/stims/Shape_0.00_2.00.png,-1,-1,1.0,1.0,-1,up,6.8413888750365,None,up,1.2302633330691606,None,None,None,"['left', 'left']","[0.344706374919042, 1.4516950409160927]","[1.3508482080651447, None]",up,2.0179861249634996,None,0,0,0,0,0,38,38,19,246.89670837507583,,,,,,,,,,,,,,,,,246.88759241602384,0.0008783750236034393,247.97954629105516,247.9796007500263,248.0145009580301,249.01993908302393,249.0147947500227,249.01510950003285,0.0003261250676587224,250.45703012507875,250.458260791027,250.5185899999924,250.5185899999924,250.5185899999924,250.5185899999924,250.5185899999924,250.5185899999924,250.5185899999924,252.5489827080164,"[0.316, 0.316, 0.316, 0.316, 0.316, 0.316, 0.316, 0.316, 0.316, 0.316, 0.316, 0.316, 0.316, 0.316, 0.316, 0.316, 0.316, 0.316, 0.316, 0.316, 0.316, 0.316, 0.316, 0.316, 0.316, 0.316, 0.316, 0.316, 0.316, 0.316, 0.316, 0.316, 0.316, 0.316, 0.312, 0.308, 0.304, 0.3, 0.296, 0.292, 0.288, 0.284, 0.28, 0.276, 0.272, 0.268, 0.264, 0.26, 0.256, 0.252, 0.248, 0.244, 0.24, 0.236, 0.232, 0.228, 0.224, 0.22, 0.216, 0.212, 0.208, 0.204, 0.2, 0.196, 0.192, 0.188, 0.184, 0.18, 0.176, 0.172, 0.168, 0.164, 0.16, 0.156, 0.152, 0.148, 0.144, 0.14, 0.136, 0.132, 0.128, 0.124, 0.12, 0.116, 0.112, 0.108, 0.104, 0.1, 0.096, 0.096, 0.096, 0.096, 0.096, 0.096, 0.096, 0.096, 0.096, 0.096, 0.096, 0.096, 0.096, 0.096, 0.096, 0.096, 0.096, 0.096, 0.096, 0.096, 0.096, 0.096, 0.096, 0.096, 0.096, 0.096, 0.096, 0.096, 0.096, 0.096, 0.096, 0.096, 0.096, 0.096, 0.096, 0.096, 0.096, 0.092, 0.088, 0.084, 0.08, 0.076, 0.072, 0.068, 0.064, 0.06, 0.056, 0.052, 0.048, 0.044, 0.04, 0.036, 0.032, 0.032, 0.032, 0.032, 0.032, 0.032, 0.032, 0.032, 0.032, 0.032, 0.032, 0.032, 0.032, 0.032, 0.032, 0.032, 0.032, 0.032, 0.032, 0.032, 0.032, 0.032, 0.032, 0.032, 0.032, 0.032, 0.032, 0.032, 0.032, 0.032]",None,None,"['left', 'left']","[0.344706374919042, 1.4516950409160927]","[1.3508482080651447, None]",up,2.0179861249634996,None,252.5496203750372,252.55718595802318,252.80436883307993,252.79703358304687,252.79713874997105,252.80436883307993,,253.80421362502966,,253.79769212508108,1,1,,,252.80436883307993,253.80421362502966,,,,,,,,,,,,,,,,,,,albert,,C,2026-03-30_11h00.16.944,asymmetry_final_v2,2024.2.4,120,2026-03-30 11h00.48.069449 -0400,
39,39,0,1,1,baseline,22,2.3,0.06,1.0,0.232,flat,curv_flat,0.0,0.0,0.06,rew,input_data/stims/Shape_2.30_1.00.png,input_data/stims/Shape_0.00_2.00.png,input_data/stims/Shape_4.00_2.00.png,1,1,1.0,-1.0,1,up,6.8413888750365,None,up,1.2302633330691606,None,None,None,['left'],[0.4180022079963237],[None],up,1.140594374970533,None,0,0,0,0,0,39,39,22,253.80421362502966,,,,,,,,,,,,,,,,,253.7986230830429,0.0009169590193778276,254.84063125005923,254.84068424999714,254.87199300003704,255.93007541599218,255.92183045798447,255.92213895800523,0.00032083294354379177,257.3141566660488,257.31545695802197,257.3734577910509,257.3734577910509,257.3734577910509,257.3734577910509,257.3734577910509,257.3734577910509,257.3734577910509,258.52234887506347,"[0.232, 0.232, 0.232, 0.232, 0.232, 0.232, 0.232, 0.232, 0.232, 0.232, 0.232, 0.232, 0.232, 0.232, 0.232, 0.232, 0.232, 0.232, 0.232, 0.232, 0.232, 0.232, 0.232, 0.232, 0.232, 0.232, 0.232, 0.232, 0.232, 0.232, 0.232, 0.232, 0.232, 0.232, 0.232, 0.228, 0.224, 0.22, 0.216, 0.212, 0.208, 0.204, 0.2, 0.196, 0.192, 0.188, 0.184, 0.18, 0.176, 0.172, 0.168, 0.164, 0.16, 0.156, 0.152, 0.148, 0.144, 0.14, 0.136, 0.132, 0.128, 0.124, 0.12, 0.116, 0.112, 0.108, 0.104, 0.1, 0.096, 0.092, 0.088, 0.084, 0.08, 0.076, 0.072, 0.068, 0.064, 0.06, 0.056, 0.052, 0.048, 0.044, 0.044, 0.044, 0.044, 0.044]",None,None,['left'],[0.4180022079963237],[None],up,1.140594374970533,None,258.522575500072,258.5291225410765,258.77996537508443,258.7693450410152,258.76944845798425,258.77996537508443,,259.8144586250419,,259.76974587503355,1,5,258.77996537508443,259.8144586250419,,,,,,,,,,,,,,,,,,,,,albert,,C,2026-03-30_11h00.16.944,asymmetry_final_v2,2024.2.4,120,2026-03-30 11h00.48.069449 -0400,
0,0,0,3,1,flat_comp,91,1.1,-0.18,1.0,0.232,curv,flat_curv,0.2,-0.2,0.18,pen,input_data/stims/Shape_1.10_1.00.png,input_data/stims/Shape_4.00_2.00.png,input_data/stims/Shape_0.00_2.00.png,-1,-1,1.0,-1.0,-1,None,,,up,0.8659891670104116,None,None,None,['left'],[0.910357874003239],[None],up,1.430983166093938,None,1,0,1,0,0,0,0,11,269.80284679098986,,268.8485387500841,,,,268.8485950410832,None,,,268.85291654104367,268.8630005000159,268.8630005000159,269.73240508302115,up,0.8659891670104116,None,269.79602916596923,0.06353795900940895,270.68846070801374,270.6885020410409,270.71958325000014,271.8469579999801,271.83903854107484,271.839309083065,0.000278000021353364,273.1812420830829,273.1824220829876,273.2470665000146,273.2470665000146,273.2470665000146,273.2470665000146,273.2470665000146,273.2470665000146,273.2470665000146,274.6886912500486,"[0.232, 0.232, 0.232, 0.232, 0.232, 0.232, 0.232, 0.232, 0.232, 0.232, 0.232, 0.232, 0.232, 0.232, 0.232, 0.232, 0.232, 0.232, 0.232, 0.232, 0.232, 0.232, 0.232, 0.232, 0.232, 0.232, 0.232, 0.232, 0.232, 0.232, 0.232, 0.232, 0.232, 0.232, 0.232, 0.232, 0.232, 0.232, 0.232, 0.232, 0.232, 0.232, 0.232, 0.232, 0.232, 0.232, 0.232, 0.232, 0.232, 0.232, 0.232, 0.232, 0.232, 0.232, 0.232, 0.232, 0.232, 0.232, 0.232, 0.232, 0.232, 0.232, 0.232, 0.232, 0.232, 0.232, 0.232, 0.232, 0.232, 0.232, 0.232, 0.232, 0.232, 0.232, 0.232, 0.232, 0.232, 0.232, 0.232, 0.232, 0.228, 0.224, 0.22, 0.216, 0.212, 0.208, 0.204, 0.2, 0.196, 0.192, 0.188, 0.184, 0.18, 0.176, 0.172, 0.168, 0.164, 0.16, 0.156, 0.152, 0.148, 0.148, 0.148, 0.148, 0.148, 0.148, 0.148, 0.148, 0.148, 0.148, 0.148, 0.148, 0.148, 0.148, 0.148, 0.148, 0.148, 0.148, 0.148, 0.148, 0.148, 0.148, 0.148]",None,None,['left'],[0.910357874003239],[None],up,1.430983166093938,None,274.6891012500273,274.6966755409958,274.9473807499744,274.93621670803986,274.936303375056,274.9473807499744,,276.05330095801037,,276.0474228330422,1,1,,,274.9473807499744,276.05330095801037,,,259.8084735000739,259.8144586250419,259.8144586250419,268.8482768749818,96,10,up,9.027715916046873,None,,,,,,,,albert,,C,2026-03-30_11h00.16.944,asymmetry_final_v2,2024.2.4,120,2026-03-30 11h00.48.069449 -0400,
1,1,0,3,1,flat_comp,81,0.1,-0.38,3.0,-0.024,curv,flat_curv,0.2,-0.2,0.38,pen,input_data/stims/Shape_0.10_3.00.png,input_data/stims/Shape_4.00_2.00.png,input_data/stims/Shape_0.00_2.00.png,-1,-1,1.0,1.0,-1,None,,,up,0.8659891670104116,None,None,None,['right'],[0.5463659580564126],[0.5393590839812532],up,1.124070291989483,None,1,0,1,0,0,1,1,1,276.05330095801037,,,,,,,,,,,,,,,,,276.0483531659702,0.0008943330030888319,277.1402932080673,277.14034654106945,277.18365941604134,278.26382804103196,278.25505120807793,278.25533179100603,0.0002912499476224184,279.59730208304245,279.59848100005183,279.65743683301844,279.65743683301844,279.65743683301844,279.65743683301844,279.65743683301844,279.65743683301844,279.65743683301844,280.78337091603316,"[-0.024, -0.024, -0.024, -0.024, -0.024, -0.024, -0.024, -0.024, -0.024, -0.024, -0.024, -0.024, -0.024, -0.024, -0.024, -0.024, -0.024, -0.024, -0.024, -0.024, -0.024, -0.024, -0.024, -0.024, -0.024, -0.024, -0.024, -0.024, -0.024, -0.024, -0.024, -0.024, -0.024, -0.024, -0.024, -0.024, -0.024, -0.024, -0.024, -0.024, -0.024, -0.024, -0.024, -0.024, -0.024, -0.024, -0.024, -0.024, -0.024, -0.024, -0.02, -0.016, -0.012, -0.008, -0.004, 0.0, 0.004, 0.008, 0.012, 0.016, 0.02, 0.024, 0.028, 0.032, 0.036, 0.04, 0.044, 0.048, 0.052, 0.056, 0.06, 0.064, 0.068, 0.072, 0.076, 0.08, 0.084, 0.088, 0.092, 0.096, 0.1, 0.104, 0.108, 0.112, 0.116, 0.12, 0.124, 0.128, 0.132, 0.136, 0.14, 0.144, 0.148, 0.152, 0.156, 0.16, 0.16, 0.16, 0.16, 0.16]",None,None,['right'],[0.5463659580564126],[0.5393590839812532],up,1.124070291989483,None,280.7836398750078,280.7897401250666,281.0468735410832,281.0364643749781,281.0365909159882,281.0468735410832,,282.1303205830045,,282.1190235830145,1,1,,,281.0468735410832,282.1303205830045,,,,,,,,,,,,,,,,,,,albert,,C,2026-03-30_11h00.16.944,asymmetry_final_v2,2024.2.4,120,2026-03-30 11h00.48.069449 -0400,
2,2,0,3,1,flat_comp,80,0.1,-0.38,1.0,0.216,curv,curv_flat,0.2,0.2,-0.38,pen,input_data/stims/Shape_0.10_1.00.png,input_data/stims/Shape_0.00_2.00.png,input_data/stims/Shape_4.00_2.00.png,-1,1,1.0,-1.0,-1,None,,,up,0.8659891670104116,None,None,None,['left'],[0.8230255829403177],[None],up,2.5672151669859886,None,1,0,1,0,0,2,2,0,282.1303205830045,,,,,,,,,,,,,,,,,282.119911457994,0.0008727919775992632,283.16189645801205,283.16194966598414,283.19542579108384,284.2162807909772,284.20958941604476,284.2098565410124,0.00027133303228765726,285.6518051250605,285.65333237499,285.71328595804516,285.71328595804516,285.71328595804516,285.71328595804516,285.71328595804516,285.71328595804516,285.71328595804516,288.28957987506874,"[0.216, 0.216, 0.216, 0.216, 0.216, 0.216, 0.216, 0.216, 0.216, 0.216, 0.216, 0.216, 0.216, 0.216, 0.216, 0.216, 0.216, 0.216, 0.216, 0.216, 0.216, 0.216, 0.216, 0.216, 0.216, 0.216, 0.216, 0.216, 0.216, 0.216, 0.216, 0.216, 0.216, 0.216, 0.216, 0.216, 0.216, 0.216, 0.216, 0.216, 0.216, 0.216, 0.216, 0.216, 0.216, 0.216, 0.216, 0.216, 0.216, 0.216, 0.216, 0.216, 0.216, 0.216, 0.216, 0.216, 0.216, 0.216, 0.216, 0.216, 0.216, 0.216, 0.216, 0.216, 0.216, 0.216, 0.216, 0.216, 0.216, 0.216, 0.216, 0.216, 0.216, 0.216, 0.216, 0.212, 0.208, 0.204, 0.2, 0.196, 0.192, 0.188, 0.184, 0.18, 0.176, 0.172, 0.168, 0.164, 0.16, 0.156, 0.152, 0.148, 0.144, 0.14, 0.136, 0.132, 0.128, 0.124, 0.12, 0.116, 0.112, 0.108, 0.104, 0.1, 0.096, 0.092, 0.088, 0.084, 0.08, 0.076, 0.072, 0.068, 0.064, 0.06, 0.056, 0.052, 0.048, 0.044, 0.04, 0.036, 0.032, 0.028, 0.024, 0.02, 0.016, 0.012, 0.008, 0.004, 0.0, -0.004, -0.008, -0.012, -0.016, -0.02, -0.024, -0.028, -0.032, -0.036, -0.04, -0.044, -0.048, -0.052, -0.056, -0.06, -0.064, -0.068, -0.072, -0.076, -0.08, -0.084, -0.088, -0.092, -0.096, -0.1, -0.104, -0.108, -0.112, -0.116, -0.12, -0.124, -0.128, -0.132, -0.136, -0.14, -0.144, -0.148, -0.152, -0.156, -0.16, -0.164, -0.168, -0.172, -0.176, -0.18, -0.184, -0.188, -0.192, -0.196, -0.2, -0.204, -0.208, -0.212, -0.216, -0.22, -0.224, -0.228, -0.232, -0.236, -0.24, -0.244, -0.248, -0.252, -0.256, -0.26, -0.264, -0.268, -0.272, -0.276, -0.28, -0.284, -0.288, -0.292, -0.296, -0.3, -0.304, -0.308, -0.312, -0.316, -0.32, -0.324, -0.328, -0.332, -0.336, -0.34, -0.344, -0.348, -0.352, -0.356, -0.36, -0.364]",None,None,['left'],[0.8230255829403177],[None],up,2.5672151669859886,None,288.2899611250032,288.2963939580368,288.547299665981,288.5367328330176,288.5368327500764,288.547299665981,,289.54732445802074,,289.53776783298235,1,1,,,288.547299665981,289.54732445802074,,,,,,,,,,,,,,,,,,,albert,,C,2026-03-30_11h00.16.944,asymmetry_final_v2,2024.2.4,120,2026-03-30 11h00.48.069449 -0400,
3,3,0,3,1,flat_comp,86,0.7,-0.26,1.0,0.236,curv,curv_flat,0.2,0.2,-0.26,pen,input_data/stims/Shape_0.70_1.00.png,input_data/stims/Shape_0.00_2.00.png,input_data/stims/Shape_4.00_2.00.png,-1,1,1.0,-1.0,-1,None,,,up,0.8659891670104116,None,None,None,['left'],[0.6892523330170661],[None],up,2.7966685000574216,None,1,0,1,0,0,3,3,6,289.54732445802074,,,,,,,,,,,,,,,,,289.538304500049,0.0005238750018179417,290.4802649160847,290.4803109159693,290.51139383297414,291.552509500063,291.54731912503485,291.5476793330163,0.00037516606971621513,292.889754874981,292.8911867910065,292.9581722910516,292.9581722910516,292.9581722910516,292.9581722910516,292.9581722910516,292.9581722910516,292.9581722910516,295.7608340000734,"[0.236, 0.236, 0.236, 0.236, 0.236, 0.236, 0.236, 0.236, 0.236, 0.236, 0.236, 0.236, 0.236, 0.236, 0.236, 0.236, 0.236, 0.236, 0.236, 0.236, 0.236, 0.236, 0.236, 0.236, 0.236, 0.236, 0.236, 0.236, 0.236, 0.236, 0.236, 0.236, 0.236, 0.236, 0.236, 0.236, 0.236, 0.236, 0.236, 0.236, 0.236, 0.236, 0.236, 0.236, 0.236, 0.236, 0.236, 0.236, 0.236, 0.236, 0.236, 0.236, 0.236, 0.236, 0.236, 0.236, 0.236, 0.236, 0.236, 0.236, 0.236, 0.236, 0.236, 0.232, 0.228, 0.224, 0.22, 0.216, 0.212, 0.208, 0.204, 0.2, 0.196, 0.192, 0.188, 0.184, 0.18, 0.176, 0.172, 0.168, 0.164, 0.16, 0.156, 0.152, 0.148, 0.144, 0.14, 0.136, 0.132, 0.128, 0.124, 0.12, 0.116, 0.112, 0.108, 0.104, 0.1, 0.096, 0.092, 0.088, 0.084, 0.08, 0.076, 0.072, 0.068, 0.064, 0.06, 0.056, 0.052, 0.048, 0.044, 0.04, 0.036, 0.032, 0.028, 0.024, 0.02, 0.016, 0.012, 0.008, 0.004, 0.0, -0.004, -0.008, -0.012, -0.016, -0.02, -0.024, -0.028, -0.032, -0.036, -0.04, -0.044, -0.048, -0.052, -0.056, -0.06, -0.064, -0.068, -0.072, -0.076, -0.08, -0.084, -0.088, -0.092, -0.096, -0.1, -0.104, -0.108, -0.112, -0.116, -0.12, -0.124, -0.128, -0.132, -0.136, -0.14, -0.144, -0.148, -0.152, -0.156, -0.16, -0.164, -0.168, -0.172, -0.176, -0.18, -0.184, -0.188, -0.192, -0.196, -0.2, -0.204, -0.208, -0.212, -0.216, -0.22, -0.224, -0.228, -0.232, -0.236, -0.24, -0.244, -0.248, -0.252, -0.256, -0.26, -0.264, -0.268, -0.272, -0.276, -0.28, -0.284, -0.288, -0.292, -0.296, -0.3, -0.304, -0.308, -0.312, -0.316, -0.32, -0.324, -0.328, -0.332, -0.336, -0.34, -0.344, -0.348, -0.352, -0.356, -0.36, -0.364, -0.368, -0.372, -0.376, -0.38, -0.384, -0.388, -0.392, -0.396, -0.4, -0.4, -0.4, -0.4, -0.4]",None,None,['left'],[0.6892523330170661],[None],up,2.7966685000574216,None,295.76121254102327,295.7669283329742,296.02226808306295,296.0147575000301,296.01488170807716,296.02226808306295,,297.0210650829831,,297.01489062502515,1,1,,,296.02226808306295,297.0210650829831,,,,,,,,,,,,,,,,,,,albert,,C,2026-03-30_11h00.16.944,asymmetry_final_v2,2024.2.4,120,2026-03-30 11h00.48.069449 -0400,
4,4,0,3,1,flat_comp,94,1.5,-0.1,1.0,0.248,curv,curv_flat,0.2,0.2,-0.1,pen,input_data/stims/Shape_1.50_1.00.png,input_data/stims/Shape_0.00_2.00.png,input_data/stims/Shape_4.00_2.00.png,-1,1,1.0,-1.0,-1,None,,,up,0.8659891670104116,None,None,None,"['left', 'left']","[1.1251841660123318, 2.1173024580348283]","[1.076093167066574, None]",up,2.423443333012983,None,1,0,1,0,0,4,4,14,297.0210650829831,,,,,,,,,,,,,,,,,297.0157774160616,0.0008722920902073383,297.95770875003655,297.9577555829892,297.988883416052,298.98703616601415,298.98119004105683,298.98148537497036,0.0003052500542253256,300.27344758308027,300.27467750001233,300.3426363749895,300.3426363749895,300.3426363749895,300.3426363749895,300.3426363749895,300.3426363749895,300.3426363749895,302.7716104580322,"[0.248, 0.248, 0.248, 0.248, 0.248, 0.248, 0.248, 0.248, 0.248, 0.248, 0.248, 0.248, 0.248, 0.248, 0.248, 0.248, 0.248, 0.248, 0.248, 0.248, 0.248, 0.248, 0.248, 0.248, 0.248, 0.248, 0.248, 0.248, 0.248, 0.248, 0.248, 0.248, 0.248, 0.248, 0.248, 0.248, 0.248, 0.248, 0.248, 0.248, 0.248, 0.248, 0.248, 0.248, 0.248, 0.248, 0.248, 0.248, 0.248, 0.248, 0.248, 0.248, 0.248, 0.248, 0.248, 0.248, 0.248, 0.248, 0.248, 0.248, 0.248, 0.248, 0.248, 0.248, 0.248, 0.248, 0.248, 0.248, 0.248, 0.248, 0.248, 0.248, 0.248, 0.248, 0.248, 0.248, 0.248, 0.248, 0.248, 0.248, 0.248, 0.248, 0.248, 0.248, 0.248, 0.248, 0.248, 0.248, 0.248, 0.248, 0.248, 0.248, 0.248, 0.248, 0.248, 0.248, 0.248, 0.248, 0.248, 0.248, 0.248, 0.248, 0.248, 0.244, 0.24, 0.236, 0.232, 0.228, 0.224, 0.22, 0.216, 0.212, 0.208, 0.204, 0.2, 0.196, 0.192, 0.188, 0.184, 0.18, 0.176, 0.172, 0.168, 0.164, 0.16, 0.156, 0.152, 0.148, 0.144, 0.14, 0.136, 0.132, 0.128, 0.124, 0.124, 0.124, 0.124, 0.124, 0.124, 0.124, 0.124, 0.124, 0.124, 0.124, 0.124, 0.124, 0.124, 0.124, 0.124, 0.124, 0.124, 0.124, 0.124, 0.124, 0.124, 0.124, 0.124, 0.124, 0.124, 0.124, 0.124, 0.124, 0.124, 0.124, 0.124, 0.124, 0.124, 0.124, 0.124, 0.124, 0.124, 0.124, 0.124, 0.124, 0.124, 0.124, 0.124, 0.124, 0.124, 0.124, 0.124, 0.124, 0.124, 0.124, 0.124, 0.124, 0.124, 0.124, 0.124, 0.12, 0.116, 0.112, 0.108, 0.104, 0.104, 0.104, 0.104, 0.104, 0.104, 0.104, 0.104, 0.104, 0.104, 0.104, 0.104, 0.104, 0.104, 0.104, 0.104, 0.104, 0.104, 0.104, 0.104]",None,None,"['left', 'left']","[1.1251841660123318, 2.1173024580348283]","[1.076093167066574, None]",up,2.423443333012983,None,302.7721518330509,302.7794826660538,303.0310357500566,303.0188620410627,303.01912987499963,303.0310357500566,,304.0477766660042,,304.0320154579822,1,1,,,303.0310357500566,304.0477766660042,,,,,,,,,,,,,,,,,,,albert,,C,2026-03-30_11h00.16.944,asymmetry_final_v2,2024.2.4,120,2026-03-30 11h00.48.069449 -0400,
