thisN,thisTrialN,thisRepN,blockN,run,condition,trial_key,stim_file_pos,stim_pos,noise_pos,marker_init,shape,shape_order,true_div,div_pos,target_pos,valence,target_file,img1_file,img2_file,valence_direction,direction,marker_direction,noise_direction,shape_category,valence_resp.keys,valence_resp.rt,valence_resp.duration,block_start_resp.keys,block_start_resp.rt,block_start_resp.duration,marker.response,marker.rt,slider_resp.keys,slider_resp.rt,slider_resp.duration,submit_resp.keys,submit_resp.rt,submit_resp.duration,blocks.thisRepN,blocks.thisTrialN,blocks.thisN,blocks.thisIndex,trials.thisRepN,trials.thisTrialN,trials.thisN,trials.thisIndex,thisRow.t,notes,valence_instruct.started,valence_image.started,valence_text.started,valence_resp.started,valence_instruct.stopped,blocks.valence_resp.keys,blocks.valence_resp.rt,blocks.valence_resp.duration,block_start.started,block_start_text.started,block_start_resp.started,block_start.stopped,blocks.block_start_resp.keys,blocks.block_start_resp.rt,blocks.block_start_resp.duration,baseline.started,ISI1.started,baseline.stopped,stim.started,target_stim.started,target_stim.stopped,stim.stopped,delay.started,ISI2.started,delay.stopped,task.started,img1.started,img2.started,divider_line.started,slider_line.started,marker.started,slider_resp.started,submit_resp.started,task.stopped,positions,trials.marker.response,trials.marker.rt,trials.slider_resp.keys,trials.slider_resp.rt,trials.slider_resp.duration,trials.submit_resp.keys,trials.submit_resp.rt,trials.submit_resp.duration,anticipation.started,anticipation_text.started,anticipation_text.stopped,anticipation.stopped,feedback.started,no_resp_text.started,one_coin.started,no_resp_text.stopped,one_coin.stopped,feedback.stopped,correct,outcome,three_coin.started,three_coin.stopped,three_cross.started,three_cross.stopped,one_cross.started,one_cross.stopped,block_end.started,block_end_text.started,block_end_resp.started,block_end.stopped,block_outcome,block_bonus,blocks.block_end_resp.keys,blocks.block_end_resp.rt,blocks.block_end_resp.duration,subj,difficulty,sess_type,date,expName,psychopyVersion,frameRate,expStart,
0,0,0,1,1,baseline,5,0.5,-0.3,1.0,-0.124,curv,flat_curv,0.0,0.0,0.3,pen,input_data/stims/Shape_0.50_1.00.png,input_data/stims/Shape_4.00_2.00.png,input_data/stims/Shape_0.00_2.00.png,-1,-1,-1.0,-1.0,-1,up,9.03893183299806,None,up,0.8430928330053575,None,None,None,['right'],[0.4188721670070663],[0.8953479579649866],up,1.4856166249956004,None,0,0,0,0,0,0,0,5,10.66037979198154,,0.3700570840155706,0.579215083969757,0.579215083969757,0.579215083969757,9.623228708980605,up,9.03893183299806,None,9.632517500023823,9.732762874977197,9.732762874977197,10.584446792025119,up,0.8430928330053575,None,10.64427229197463,0.05973262496991083,11.637079500011168,11.637132374977227,11.680555249971803,12.822471124993172,12.816668250015937,12.817126000009011,0.0004830000107176602,14.209179541969206,14.210585749999154,14.305435209011193,14.305435209011193,14.305435209011193,14.305435209011193,14.305435209011193,14.305435209011193,14.305435209011193,15.801141874981113,"[-0.124, -0.124, -0.124, -0.124, -0.124, -0.124, -0.124, -0.124, -0.124, -0.124, -0.124, -0.124, -0.124, -0.124, -0.124, -0.124, -0.124, -0.124, -0.124, -0.124, -0.124, -0.124, -0.124, -0.124, -0.124, -0.124, -0.124, -0.124, -0.124, -0.124, -0.124, -0.124, -0.124, -0.124, -0.124, -0.124, -0.124, -0.124, -0.12, -0.116, -0.112, -0.108, -0.104, -0.1, -0.096, -0.092, -0.088, -0.084, -0.08, -0.076, -0.072, -0.068, -0.064, -0.06, -0.056, -0.052, -0.048, -0.044, -0.04, -0.036, -0.032, -0.028, -0.024, -0.02, -0.016, -0.012, -0.008, -0.004, 0.0, 0.004, 0.008, 0.012, 0.016, 0.02, 0.024, 0.028, 0.032, 0.036, 0.04, 0.044, 0.048, 0.052, 0.056, 0.06, 0.064, 0.068, 0.072, 0.076, 0.08, 0.084, 0.088, 0.092, 0.096, 0.1, 0.104, 0.108, 0.112, 0.116, 0.12, 0.124, 0.128, 0.132, 0.136, 0.14, 0.144, 0.148, 0.148, 0.148, 0.148, 0.148, 0.148, 0.148, 0.148, 0.148, 0.148, 0.148, 0.148, 0.148, 0.148, 0.148, 0.148, 0.148, 0.148, 0.148]",None,None,['right'],[0.4188721670070663],[0.8953479579649866],up,1.4856166249956004,None,15.801598959020339,15.810189459007233,16.127281541994307,16.11702270898968,16.117180333996657,16.127281541994307,16.127281541994307,17.165215125016402,17.165215125016402,17.15611112501938,1,1,,,,,,,,,,,,,,,,daria,patients,C,2026-03-24_18h21.29.641,asymmetry_final,2024.2.4,120,2026-03-24 18h22.38.630578 -0400,
1,1,0,1,1,baseline,39,3.9,0.38,3.0,0.024,flat,flat_curv,0.0,0.0,-0.38,rew,input_data/stims/Shape_3.90_3.00.png,input_data/stims/Shape_4.00_2.00.png,input_data/stims/Shape_0.00_2.00.png,1,-1,1.0,1.0,1,up,9.03893183299806,None,up,0.8430928330053575,None,None,None,['left'],[0.38258791697444394],[1.251395582978148],up,1.7481425000005402,None,0,0,0,0,0,1,1,39,17.165215125016402,,,,,,,,,,,,,,,,,17.15721587499138,0.001065958000253886,18.249166709021665,18.249208667024504,18.28402316698339,19.381513166998047,19.37654308398487,19.37680983397877,0.0002749170525930822,20.86883787502302,20.870085834001657,20.93535837501986,20.93535837501986,20.93535837501986,20.93535837501986,20.93535837501986,20.93535837501986,20.93535837501986,22.702417958993465,"[0.024, 0.024, 0.024, 0.024, 0.024, 0.024, 0.024, 0.024, 0.024, 0.024, 0.024, 0.024, 0.024, 0.024, 0.024, 0.024, 0.024, 0.024, 0.024, 0.024, 0.024, 0.024, 0.024, 0.024, 0.024, 0.024, 0.024, 0.024, 0.024, 0.024, 0.024, 0.024, 0.024, 0.02, 0.016, 0.012, 0.008, 0.004, 0.0, -0.004, -0.008, -0.012, -0.016, -0.02, -0.024, -0.028, -0.032, -0.036, -0.04, -0.044, -0.048, -0.052, -0.056, -0.06, -0.064, -0.068, -0.072, -0.076, -0.08, -0.084, -0.088, -0.092, -0.096, -0.1, -0.104, -0.108, -0.112, -0.116, -0.12, -0.124, -0.128, -0.132, -0.136, -0.14, -0.144, -0.148, -0.152, -0.156, -0.16, -0.164, -0.168, -0.172, -0.176, -0.18, -0.184, -0.188, -0.192, -0.196, -0.2, -0.204, -0.208, -0.212, -0.216, -0.22, -0.224, -0.228, -0.232, -0.236, -0.24, -0.244, -0.248, -0.252, -0.256, -0.26, -0.264, -0.268, -0.272, -0.276, -0.28, -0.284, -0.288, -0.292, -0.296, -0.3, -0.304, -0.308, -0.312, -0.316, -0.32, -0.324, -0.328, -0.332, -0.336, -0.34, -0.344, -0.348, -0.348, -0.348, -0.348, -0.348, -0.348, -0.348, -0.348, -0.348, -0.348, -0.348, -0.348]",None,None,['left'],[0.38258791697444394],[1.251395582978148],up,1.7481425000005402,None,22.7031044170144,22.710717000009026,23.016091500001494,23.00495587498881,23.005063458986115,23.016091500001494,,24.13178854197031,,24.12383466697065,1,5,23.016091500001494,24.13178854197031,,,,,,,,,,,,,,daria,patients,C,2026-03-24_18h21.29.641,asymmetry_final,2024.2.4,120,2026-03-24 18h22.38.630578 -0400,
2,2,0,1,1,baseline,23,2.3,0.06,3.0,0.14,flat,flat_curv,0.0,0.0,-0.06,rew,input_data/stims/Shape_2.30_3.00.png,input_data/stims/Shape_4.00_2.00.png,input_data/stims/Shape_0.00_2.00.png,1,-1,1.0,1.0,1,up,9.03893183299806,None,up,0.8430928330053575,None,None,None,['left'],[0.5514967080089264],[0.5352436249959283],up,1.2853814580012113,None,0,0,0,0,0,2,2,23,24.13178854197031,,,,,,,,,,,,,,,,,24.124638542009052,0.0007924169767647982,25.0165923750028,25.016659708984662,25.048333166982047,26.121573583979625,26.11613166698953,26.116536709014326,0.0004153749905526638,27.45851229201071,27.45976416702615,27.52144387498265,27.52144387498265,27.52144387498265,27.52144387498265,27.52144387498265,27.52144387498265,27.52144387498265,28.81905662501231,"[0.14, 0.14, 0.14, 0.14, 0.14, 0.14, 0.14, 0.14, 0.14, 0.14, 0.14, 0.14, 0.14, 0.14, 0.14, 0.14, 0.14, 0.14, 0.14, 0.14, 0.14, 0.14, 0.14, 0.14, 0.14, 0.14, 0.14, 0.14, 0.14, 0.14, 0.14, 0.14, 0.14, 0.14, 0.14, 0.14, 0.14, 0.14, 0.14, 0.14, 0.14, 0.14, 0.14, 0.14, 0.14, 0.14, 0.14, 0.14, 0.136, 0.132, 0.128, 0.124, 0.12, 0.116, 0.112, 0.108, 0.104, 0.1, 0.096, 0.092, 0.088, 0.084, 0.08, 0.076, 0.072, 0.068, 0.064, 0.06, 0.056, 0.052, 0.048, 0.044, 0.04, 0.036, 0.032, 0.028, 0.024, 0.02, 0.016, 0.012, 0.008, 0.004, 0.0, -0.004, -0.008, -0.012, -0.016, -0.02, -0.024, -0.028, -0.032, -0.036, -0.04, -0.04, -0.04, -0.04, -0.04, -0.04, -0.04, -0.04, -0.04, -0.04, -0.04, -0.04, -0.04, -0.04, -0.04, -0.04, -0.04, -0.04, -0.04, -0.04]",None,None,['left'],[0.5514967080089264],[0.5352436249959283],up,1.2853814580012113,None,28.8194507919834,28.826203125005122,29.0830801249831,29.071980624983553,29.072090208996087,29.0830801249831,,30.09921408398077,,30.087838499981444,1,5,29.0830801249831,30.09921408398077,,,,,,,,,,,,,,daria,patients,C,2026-03-24_18h21.29.641,asymmetry_final,2024.2.4,120,2026-03-24 18h22.38.630578 -0400,
3,3,0,1,1,baseline,13,1.3,-0.14,3.0,-0.36,curv,flat_curv,0.0,0.0,0.14,pen,input_data/stims/Shape_1.30_3.00.png,input_data/stims/Shape_4.00_2.00.png,input_data/stims/Shape_0.00_2.00.png,-1,-1,-1.0,1.0,-1,up,9.03893183299806,None,up,0.8430928330053575,None,None,None,"['right', 'right']","[0.8262834579800256, 2.024844416009728]","[0.9079200830310583, 0.09986337495502084]",up,2.4868618329637684,None,0,0,0,0,0,3,3,13,30.09921408398077,,,,,,,,,,,,,,,,,30.08829041698482,0.0004397500306367874,30.980168583977502,30.980219041986857,31.014860083989333,32.05027662497014,32.034651416994166,32.03492449998157,0.00028675002977252007,33.37687687500147,33.37815837498056,33.441065458988305,33.441065458988305,33.441065458988305,33.441065458988305,33.441065458988305,33.441065458988305,33.441065458988305,35.93577695899876,"[-0.36, -0.36, -0.36, -0.36, -0.36, -0.36, -0.36, -0.36, -0.36, -0.36, -0.36, -0.36, -0.36, -0.36, -0.36, -0.36, -0.36, -0.36, -0.36, -0.36, -0.36, -0.36, -0.36, -0.36, -0.36, -0.36, -0.36, -0.36, -0.36, -0.36, -0.36, -0.36, -0.36, -0.36, -0.36, -0.36, -0.36, -0.36, -0.36, -0.36, -0.36, -0.36, -0.36, -0.36, -0.36, -0.36, -0.36, -0.36, -0.36, -0.36, -0.36, -0.36, -0.36, -0.36, -0.36, -0.36, -0.36, -0.36, -0.36, -0.36, -0.36, -0.36, -0.36, -0.36, -0.36, -0.36, -0.36, -0.36, -0.36, -0.36, -0.36, -0.36, -0.36, -0.36, -0.36, -0.356, -0.352, -0.348, -0.344, -0.34, -0.336, -0.332, -0.328, -0.324, -0.32, -0.316, -0.312, -0.308, -0.304, -0.3, -0.296, -0.292, -0.288, -0.284, -0.28, -0.276, -0.272, -0.268, -0.264, -0.26, -0.256, -0.252, -0.248, -0.244, -0.24, -0.236, -0.232, -0.228, -0.224, -0.22, -0.216, -0.212, -0.208, -0.204, -0.2, -0.196, -0.192, -0.188, -0.184, -0.18, -0.176, -0.172, -0.168, -0.164, -0.16, -0.156, -0.152, -0.148, -0.144, -0.14, -0.136, -0.132, -0.128, -0.124, -0.12, -0.116, -0.112, -0.108, -0.104, -0.1, -0.096, -0.092, -0.088, -0.084, -0.08, -0.08, -0.08, -0.08, -0.08, -0.08, -0.08, -0.08, -0.08, -0.08, -0.08, -0.08, -0.08, -0.08, -0.08, -0.08, -0.08, -0.08, -0.08, -0.08, -0.08, -0.08, -0.08, -0.076, -0.072, -0.068, -0.064, -0.06, -0.056, -0.052, -0.048, -0.048, -0.048, -0.048, -0.048, -0.048, -0.048, -0.048, -0.048, -0.048, -0.048, -0.048, -0.048, -0.048, -0.048, -0.048, -0.048, -0.048, -0.048, -0.048, -0.048, -0.048, -0.048, -0.048, -0.048, -0.048, -0.048, -0.048, -0.048, -0.048, -0.048]",None,None,"['right', 'right']","[0.8262834579800256, 2.024844416009728]","[0.9079200830310583, 0.09986337495502084]",up,2.4868618329637684,None,35.93633520900039,35.94952862500213,36.208335333969444,36.200316458998714,36.20041458401829,36.208335333969444,,37.24029975000303,,37.233522250026,0,-5,,,36.208335333969444,37.24029975000303,,,,,,,,,,,,daria,patients,C,2026-03-24_18h21.29.641,asymmetry_final,2024.2.4,120,2026-03-24 18h22.38.630578 -0400,
4,4,0,1,1,baseline,18,1.9,-0.02,1.0,-0.124,curv,curv_flat,0.0,0.0,-0.02,pen,input_data/stims/Shape_1.90_1.00.png,input_data/stims/Shape_0.00_2.00.png,input_data/stims/Shape_4.00_2.00.png,-1,1,-1.0,-1.0,-1,up,9.03893183299806,None,up,0.8430928330053575,None,None,None,"['right', 'left', 'left']","[0.5001420830376446, 1.4463294160086662, 1.65716624900233]","[0.6279229159699753, 0.10383533302228898, 0.1158595000160858]",up,2.1276395830209367,None,0,0,0,0,0,4,4,18,37.24029975000303,,,,,,,,,,,,,,,,,37.23439491697354,0.0008615420083515346,38.17642483400414,38.1764796670177,38.211341416987125,39.334878458990715,39.32859325001482,39.328849542012904,0.00026233296375721693,40.72080508398358,40.72202687500976,40.794791167019866,40.794791167019866,40.794791167019866,40.794791167019866,40.794791167019866,40.794791167019866,40.794791167019866,42.924758334003855,"[-0.124, -0.124, -0.124, -0.124, -0.124, -0.124, -0.124, -0.124, -0.124, -0.124, -0.124, -0.124, -0.124, -0.124, -0.124, -0.124, -0.124, -0.124, -0.124, -0.124, -0.124, -0.124, -0.124, -0.124, -0.124, -0.124, -0.124, -0.124, -0.124, -0.124, -0.124, -0.124, -0.124, -0.124, -0.124, -0.124, -0.124, -0.124, -0.124, -0.124, -0.124, -0.124, -0.124, -0.124, -0.12, -0.116, -0.112, -0.108, -0.104, -0.1, -0.096, -0.092, -0.088, -0.084, -0.08, -0.076, -0.072, -0.068, -0.064, -0.06, -0.056, -0.052, -0.048, -0.044, -0.04, -0.036, -0.032, -0.028, -0.024, -0.02, -0.016, -0.012, -0.008, -0.004, 0.0, 0.004, 0.008, 0.012, 0.016, 0.02, 0.024, 0.028, 0.032, 0.036, 0.04, 0.044, 0.048, 0.052, 0.056, 0.06, 0.064, 0.064, 0.064, 0.064, 0.064, 0.064, 0.064, 0.064, 0.064, 0.064, 0.064, 0.064, 0.064, 0.064, 0.064, 0.064, 0.064, 0.064, 0.064, 0.064, 0.064, 0.064, 0.064, 0.064, 0.064, 0.064, 0.064, 0.064, 0.06, 0.056, 0.052, 0.048, 0.044, 0.04, 0.036, 0.032, 0.028, 0.028, 0.028, 0.028, 0.028, 0.028, 0.028, 0.028, 0.028, 0.028, 0.028, 0.028, 0.028, 0.028, 0.028, 0.028, 0.028, 0.028, 0.028, 0.028, 0.028, 0.028, 0.028, 0.028, 0.028, 0.028, 0.028, 0.028, 0.028, 0.028, 0.028, 0.028, 0.028, 0.028, 0.028, 0.028, 0.028, 0.028, 0.028, 0.028, 0.028, 0.028, 0.028, 0.028, 0.028, 0.028, 0.028, 0.028, 0.028, 0.028]",None,None,"['right', 'left', 'left']","[0.5001420830376446, 1.4463294160086662, 1.65716624900233]","[0.6279229159699753, 0.10383533302228898, 0.1158595000160858]",up,2.1276395830209367,None,42.92524133401457,42.93255324999336,43.20002387498971,43.189163583971094,43.189235874975566,43.20002387498971,,44.21619966701837,,44.20620604197029,0,-5,,,43.20002387498971,44.21619966701837,,,,,,,,,,,,daria,patients,C,2026-03-24_18h21.29.641,asymmetry_final,2024.2.4,120,2026-03-24 18h22.38.630578 -0400,
5,5,0,1,1,baseline,6,0.7,-0.26,3.0,0.124,curv,curv_flat,0.0,0.0,-0.26,pen,input_data/stims/Shape_0.70_3.00.png,input_data/stims/Shape_0.00_2.00.png,input_data/stims/Shape_4.00_2.00.png,-1,1,1.0,1.0,-1,up,9.03893183299806,None,up,0.8430928330053575,None,None,None,['left'],[0.39130412496160716],[0.511937041010242],up,1.0150360830011778,None,0,0,0,0,0,5,5,6,44.21619966701837,,,,,,,,,,,,,,,,,44.20704187499359,0.0008163750171661377,45.198997124971356,45.199049666989595,45.236715791979805,46.28326445899438,46.276700209011324,46.2769882499706,0.000298958970233798,47.568908000015654,47.57029591698665,47.636346750019584,47.636346750019584,47.636346750019584,47.636346750019584,47.636346750019584,47.636346750019584,47.636346750019584,48.657240583968814,"[0.124, 0.124, 0.124, 0.124, 0.124, 0.124, 0.124, 0.124, 0.124, 0.124, 0.124, 0.124, 0.124, 0.124, 0.124, 0.124, 0.124, 0.124, 0.124, 0.124, 0.124, 0.124, 0.124, 0.124, 0.124, 0.124, 0.124, 0.124, 0.124, 0.124, 0.124, 0.124, 0.124, 0.124, 0.124, 0.124, 0.124, 0.124, 0.124, 0.12, 0.116, 0.112, 0.108, 0.104, 0.1, 0.096, 0.092, 0.088, 0.084, 0.08, 0.076, 0.072, 0.068, 0.064, 0.06, 0.056, 0.052, 0.048, 0.044, 0.04, 0.036, 0.032, 0.028, 0.024, 0.02, 0.016, 0.012, 0.008, 0.004, 0.0, -0.004, -0.008, -0.012, -0.016, -0.02, -0.024, -0.028, -0.032, -0.036, -0.04, -0.044, -0.044, -0.044, -0.044, -0.044, -0.044, -0.044, -0.044, -0.044, -0.044, -0.044, -0.044, -0.044]",None,None,['left'],[0.39130412496160716],[0.511937041010242],up,1.0150360830011778,None,48.65754104201915,48.66549858398503,48.91566216701176,48.905707209021784,48.90582083398476,48.91566216701176,48.91566216701176,49.9235366670182,49.9235366670182,49.91735291702207,1,1,,,,,,,,,,,,,,,,daria,patients,C,2026-03-24_18h21.29.641,asymmetry_final,2024.2.4,120,2026-03-24 18h22.38.630578 -0400,
6,6,0,1,1,baseline,30,3.1,0.22,3.0,0.128,flat,curv_flat,0.0,0.0,0.22,rew,input_data/stims/Shape_3.10_3.00.png,input_data/stims/Shape_0.00_2.00.png,input_data/stims/Shape_4.00_2.00.png,1,1,1.0,1.0,1,up,9.03893183299806,None,up,0.8430928330053575,None,None,None,['left'],[0.43342245800886303],[0.21507608302636072],up,0.9167537500034086,None,0,0,0,0,0,6,6,30,49.9235366670182,,,,,,,,,,,,,,,,,49.9181987089687,0.0008258749730885029,51.01020158402389,51.01025179197313,51.04244654200738,52.1824280419969,52.17672033398412,52.17701770900749,0.0003090829704888165,53.51895020902157,53.520216959004756,53.5822401670157,53.5822401670157,53.5822401670157,53.5822401670157,53.5822401670157,53.5822401670157,53.5822401670157,54.50775624997914,"[0.128, 0.128, 0.128, 0.128, 0.128, 0.128, 0.128, 0.128, 0.128, 0.128, 0.128, 0.128, 0.128, 0.128, 0.128, 0.128, 0.128, 0.128, 0.128, 0.128, 0.128, 0.128, 0.128, 0.128, 0.128, 0.128, 0.128, 0.128, 0.128, 0.128, 0.128, 0.128, 0.128, 0.128, 0.128, 0.128, 0.128, 0.128, 0.128, 0.128, 0.128, 0.128, 0.128, 0.128, 0.124, 0.12, 0.116, 0.112, 0.108, 0.104, 0.1, 0.096, 0.092, 0.088, 0.084, 0.08, 0.076, 0.072, 0.068, 0.068, 0.068, 0.068, 0.068, 0.068, 0.068, 0.068, 0.068, 0.068, 0.068, 0.068, 0.068, 0.068, 0.068, 0.068, 0.068, 0.068, 0.068, 0.068, 0.068, 0.068, 0.068]",None,None,['left'],[0.43342245800886303],[0.21507608302636072],up,0.9167537500034086,None,54.50804870901629,54.51535329199396,54.766235333983786,54.75520825001877,54.75531699997373,54.766235333983786,,55.78320441697724,,55.77170337497955,1,5,54.766235333983786,55.78320441697724,,,,,,,,,,,,,,daria,patients,C,2026-03-24_18h21.29.641,asymmetry_final,2024.2.4,120,2026-03-24 18h22.38.630578 -0400,
7,7,0,1,1,baseline,12,1.3,-0.14,1.0,-0.06,curv,curv_flat,0.0,0.0,-0.14,pen,input_data/stims/Shape_1.30_1.00.png,input_data/stims/Shape_0.00_2.00.png,input_data/stims/Shape_4.00_2.00.png,-1,1,-1.0,-1.0,-1,up,9.03893183299806,None,up,0.8430928330053575,None,None,None,None,,,up,1.2480379160260782,None,0,0,0,0,0,7,7,12,55.78320441697724,,,,,,,,,,,,,,,,,55.77257145900512,0.0008548330515623093,56.76456308399793,56.76461875002133,56.79736383398995,57.80716637498699,57.80207274999702,57.8023677499732,0.00030025001615285873,59.24428624997381,59.2455711250077,59.307161333970726,59.307161333970726,59.307161333970726,59.307161333970726,59.307161333970726,59.307161333970726,59.307161333970726,60.56248012499418,"[-0.06, -0.06, -0.06, -0.06, -0.06, -0.06, -0.06, -0.06, -0.06, -0.06, -0.06, -0.06, -0.06, -0.06, -0.06, -0.06, -0.06, -0.06, -0.06, -0.06, -0.06, -0.06, -0.06, -0.06, -0.06, -0.06, -0.06, -0.06, -0.06, -0.06, -0.06, -0.06, -0.06, -0.06, -0.06, -0.06, -0.06, -0.06, -0.06, -0.06, -0.06, -0.06, -0.06, -0.06, -0.06, -0.06, -0.06, -0.06, -0.06, -0.06, -0.06, -0.06, -0.06, -0.06, -0.06, -0.06, -0.06, -0.06, -0.06, -0.06, -0.06, -0.06, -0.06, -0.06, -0.06, -0.06, -0.06, -0.06, -0.06, -0.06, -0.06, -0.06, -0.06, -0.06, -0.06, -0.06, -0.06, -0.06, -0.06, -0.06, -0.06, -0.06, -0.06, -0.06, -0.06, -0.06, -0.06, -0.06, -0.06, -0.06, -0.06, -0.06, -0.06, -0.06, -0.06, -0.06, -0.06, -0.06, -0.06, -0.06, -0.06, -0.06, -0.06, -0.06, -0.06, -0.06]",None,None,None,,,up,1.2480379160260782,None,60.56282645900501,60.5705997920013,60.85093162499834,60.817496833973564,60.842715209000744,60.85093162499834,,61.86548783397302,,61.85758908401476,0,-5,,,60.85093162499834,61.86548783397302,,,,,,,,,,,,daria,patients,C,2026-03-24_18h21.29.641,asymmetry_final,2024.2.4,120,2026-03-24 18h22.38.630578 -0400,
8,8,0,1,1,baseline,14,1.5,-0.1,3.0,-0.34,curv,curv_flat,0.0,0.0,-0.1,pen,input_data/stims/Shape_1.50_3.00.png,input_data/stims/Shape_0.00_2.00.png,input_data/stims/Shape_4.00_2.00.png,-1,1,-1.0,1.0,-1,up,9.03893183299806,None,up,0.8430928330053575,None,None,None,['right'],[0.6185453329817392],[0.888173709041439],up,1.7520014999900013,None,0,0,0,0,0,8,8,14,61.86548783397302,,,,,,,,,,,,,,,,,61.85841695900308,0.0008121249848045409,62.80028895899886,62.800333334016614,62.83203895902261,63.932480124989524,63.925404499983415,63.92567912500817,0.00028329098131507635,65.21766279201256,65.21886666701175,65.27970695897238,65.27970695897238,65.27970695897238,65.27970695897238,65.27970695897238,65.27970695897238,65.27970695897238,67.04280712502077,"[-0.34, -0.34, -0.34, -0.34, -0.34, -0.34, -0.34, -0.34, -0.34, -0.34, -0.34, -0.34, -0.34, -0.34, -0.34, -0.34, -0.34, -0.34, -0.34, -0.34, -0.34, -0.34, -0.34, -0.34, -0.34, -0.34, -0.34, -0.34, -0.34, -0.34, -0.34, -0.34, -0.34, -0.34, -0.34, -0.34, -0.34, -0.34, -0.34, -0.34, -0.34, -0.34, -0.34, -0.34, -0.34, -0.34, -0.34, -0.34, -0.34, -0.34, -0.34, -0.34, -0.34, -0.34, -0.34, -0.34, -0.34, -0.34, -0.34, -0.336, -0.332, -0.328, -0.324, -0.32, -0.316, -0.312, -0.308, -0.304, -0.3, -0.296, -0.292, -0.288, -0.284, -0.28, -0.276, -0.272, -0.268, -0.264, -0.26, -0.256, -0.252, -0.248, -0.244, -0.24, -0.236, -0.232, -0.228, -0.224, -0.22, -0.216, -0.212, -0.208, -0.204, -0.2, -0.196, -0.192, -0.188, -0.184, -0.18, -0.176, -0.172, -0.168, -0.164, -0.16, -0.156, -0.152, -0.148, -0.144, -0.14, -0.136, -0.132, -0.128, -0.124, -0.12, -0.116, -0.112, -0.108, -0.104, -0.1, -0.096, -0.092, -0.088, -0.084, -0.08, -0.076, -0.072, -0.068, -0.064, -0.06, -0.06, -0.06, -0.06, -0.06, -0.06, -0.06, -0.06, -0.06, -0.06, -0.06, -0.06, -0.06, -0.06, -0.06, -0.06, -0.06, -0.06, -0.06, -0.06, -0.06, -0.06, -0.06, -0.06]",None,None,['right'],[0.6185453329817392],[0.888173709041439],up,1.7520014999900013,None,67.0433690000209,67.05338016699534,67.48340024997015,67.46801825001603,67.46986883401405,67.48340024997015,67.48340024997015,68.52281841699732,68.52281841699732,68.5170015419717,1,1,,,,,,,,,,,,,,,,daria,patients,C,2026-03-24_18h21.29.641,asymmetry_final,2024.2.4,120,2026-03-24 18h22.38.630578 -0400,
9,9,0,1,1,baseline,32,3.3,0.26,1.0,-0.036,flat,curv_flat,0.0,0.0,0.26,rew,input_data/stims/Shape_3.30_1.00.png,input_data/stims/Shape_0.00_2.00.png,input_data/stims/Shape_4.00_2.00.png,1,1,-1.0,-1.0,1,up,9.03893183299806,None,up,0.8430928330053575,None,None,None,['right'],[0.4650068740011193],[0.5435158750042319],up,1.216930749011226,None,0,0,0,0,0,9,9,32,68.52281841699732,,,,,,,,,,,,,,,,,68.51786041702144,0.0008409590227529407,69.60984312498476,69.60989550000522,69.64620587497484,70.66669820901006,70.65276754199294,70.65300450002542,0.0002501250128261745,72.0449511249899,72.04631383396918,72.11003541701939,72.11003541701939,72.11003541701939,72.11003541701939,72.11003541701939,72.11003541701939,72.11003541701939,73.33003833401017,"[-0.036, -0.036, -0.036, -0.036, -0.036, -0.036, -0.036, -0.036, -0.036, -0.036, -0.036, -0.036, -0.036, -0.036, -0.036, -0.036, -0.036, -0.036, -0.036, -0.036, -0.036, -0.036, -0.036, -0.036, -0.036, -0.036, -0.036, -0.036, -0.036, -0.036, -0.036, -0.036, -0.036, -0.036, -0.036, -0.036, -0.036, -0.036, -0.036, -0.036, -0.036, -0.032, -0.028, -0.024, -0.02, -0.016, -0.012, -0.008, -0.004, 0.0, 0.004, 0.008, 0.012, 0.016, 0.02, 0.024, 0.028, 0.032, 0.036, 0.04, 0.044, 0.048, 0.052, 0.056, 0.06, 0.064, 0.068, 0.072, 0.076, 0.08, 0.084, 0.088, 0.092, 0.096, 0.1, 0.104, 0.108, 0.112, 0.116, 0.12, 0.124, 0.128, 0.132, 0.132, 0.132, 0.132, 0.132, 0.132, 0.132, 0.132, 0.132, 0.132, 0.132, 0.132, 0.132, 0.132, 0.132, 0.132, 0.132, 0.132, 0.132]",None,None,['right'],[0.4650068740011193],[0.5435158750042319],up,1.216930749011226,None,73.33048487501219,73.33713583397912,73.6000872500008,73.59070624999003,73.59079954196932,73.6000872500008,,74.63962983398233,,74.63354283402441,1,5,73.6000872500008,74.63962983398233,,,,,,,,,,,,,,daria,patients,C,2026-03-24_18h21.29.641,asymmetry_final,2024.2.4,120,2026-03-24 18h22.38.630578 -0400,
10,10,0,1,1,baseline,28,2.9,0.18,1.0,0.38,flat,curv_flat,0.0,0.0,0.18,rew,input_data/stims/Shape_2.90_1.00.png,input_data/stims/Shape_0.00_2.00.png,input_data/stims/Shape_4.00_2.00.png,1,1,1.0,-1.0,1,up,9.03893183299806,None,up,0.8430928330053575,None,None,None,"['left', 'left']","[0.8440631660050713, 1.7491186239640228]","[0.8233088749693707, 0.052174792042933404]",up,1.9206356239737943,None,0,0,0,0,0,10,10,28,74.63962983398233,,,,,,,,,,,,,,,,,74.63426374999108,0.0007089159917086363,75.67618166701868,75.67623745900346,75.70972874999279,76.79025179200107,76.78506395901786,76.7853826250066,0.0003173750010319054,78.2773865420022,78.2786922500236,78.33882875001291,78.33882875001291,78.33882875001291,78.33882875001291,78.33882875001291,78.33882875001291,78.33882875001291,80.27529887499986,"[0.38, 0.38, 0.38, 0.38, 0.38, 0.38, 0.38, 0.38, 0.38, 0.38, 0.38, 0.38, 0.38, 0.38, 0.38, 0.38, 0.38, 0.38, 0.38, 0.38, 0.38, 0.38, 0.38, 0.38, 0.38, 0.38, 0.38, 0.38, 0.38, 0.38, 0.38, 0.38, 0.38, 0.38, 0.38, 0.38, 0.38, 0.38, 0.38, 0.38, 0.38, 0.38, 0.38, 0.38, 0.38, 0.38, 0.38, 0.38, 0.38, 0.38, 0.38, 0.38, 0.38, 0.38, 0.38, 0.38, 0.38, 0.38, 0.38, 0.38, 0.38, 0.38, 0.38, 0.38, 0.38, 0.38, 0.38, 0.38, 0.38, 0.38, 0.38, 0.38, 0.38, 0.38, 0.38, 0.38, 0.38, 0.38, 0.38, 0.376, 0.372, 0.368, 0.364, 0.36, 0.356, 0.352, 0.348, 0.344, 0.34, 0.336, 0.332, 0.328, 0.324, 0.32, 0.316, 0.312, 0.308, 0.304, 0.3, 0.296, 0.292, 0.288, 0.284, 0.28, 0.276, 0.272, 0.268, 0.264, 0.26, 0.256, 0.252, 0.248, 0.244, 0.24, 0.236, 0.232, 0.228, 0.224, 0.22, 0.216, 0.212, 0.208, 0.204, 0.2, 0.196, 0.192, 0.188, 0.184, 0.18, 0.176, 0.172, 0.168, 0.164, 0.16, 0.156, 0.152, 0.148, 0.144, 0.14, 0.136, 0.132, 0.128, 0.124, 0.12, 0.116, 0.112, 0.108, 0.108, 0.108, 0.108, 0.108, 0.108, 0.108, 0.108, 0.108, 0.104, 0.1, 0.096, 0.096, 0.096, 0.096, 0.096, 0.096, 0.096, 0.096, 0.096, 0.096, 0.096]",None,None,"['left', 'left']","[0.8440631660050713, 1.7491186239640228]","[0.8233088749693707, 0.052174792042933404]",up,1.9206356239737943,None,80.27590150001924,80.28260974999284,80.53345804201672,80.52279691700824,80.5229065840249,80.53345804201672,,81.55725854198681,,81.55113758397056,1,5,80.53345804201672,81.55725854198681,,,,,,,,,,,,,,daria,patients,C,2026-03-24_18h21.29.641,asymmetry_final,2024.2.4,120,2026-03-24 18h22.38.630578 -0400,
11,11,0,1,1,baseline,4,0.5,-0.3,1.0,0.124,curv,curv_flat,0.0,0.0,-0.3,pen,input_data/stims/Shape_0.50_1.00.png,input_data/stims/Shape_0.00_2.00.png,input_data/stims/Shape_4.00_2.00.png,-1,1,1.0,-1.0,-1,up,9.03893183299806,None,up,0.8430928330053575,None,None,None,['left'],[0.34051449998514727],[1.1391955830040388],up,1.6348120829788968,None,0,0,0,0,0,11,11,4,81.55725854198681,,,,,,,,,,,,,,,,,81.55201454198686,0.0008543329895474017,82.44396595901344,82.44401662499877,82.47681662498508,83.6231806249707,83.61728004197357,83.61757379199844,0.00030179100576788187,85.00957629201002,85.0108848750242,85.07111237500794,85.07111237500794,85.07111237500794,85.07111237500794,85.07111237500794,85.07111237500794,85.07111237500794,86.70935841702158,"[0.124, 0.124, 0.124, 0.124, 0.124, 0.124, 0.124, 0.124, 0.124, 0.124, 0.124, 0.124, 0.124, 0.124, 0.124, 0.124, 0.124, 0.124, 0.124, 0.124, 0.124, 0.124, 0.124, 0.124, 0.124, 0.124, 0.124, 0.124, 0.124, 0.124, 0.12, 0.116, 0.112, 0.108, 0.104, 0.1, 0.096, 0.092, 0.088, 0.084, 0.08, 0.076, 0.072, 0.068, 0.064, 0.06, 0.056, 0.052, 0.048, 0.044, 0.04, 0.036, 0.032, 0.028, 0.024, 0.02, 0.016, 0.012, 0.008, 0.004, 0.0, -0.004, -0.008, -0.012, -0.016, -0.02, -0.024, -0.028, -0.032, -0.036, -0.04, -0.044, -0.048, -0.052, -0.056, -0.06, -0.064, -0.068, -0.072, -0.076, -0.08, -0.084, -0.088, -0.092, -0.096, -0.1, -0.104, -0.108, -0.112, -0.116, -0.12, -0.124, -0.128, -0.132, -0.136, -0.14, -0.144, -0.148, -0.152, -0.156, -0.16, -0.164, -0.168, -0.172, -0.176, -0.18, -0.184, -0.188, -0.192, -0.196, -0.2, -0.204, -0.208, -0.212, -0.216, -0.22, -0.224, -0.224, -0.224, -0.224, -0.224, -0.224, -0.224, -0.224, -0.224, -0.224, -0.224, -0.224, -0.224, -0.224]",None,None,['left'],[0.34051449998514727],[1.1391955830040388],up,1.6348120829788968,None,86.70988829201087,86.71997149998788,87.04997945897048,87.03952687501442,87.03964162501507,87.04997945897048,87.04997945897048,88.05733591702301,88.05733591702301,88.05118812498404,1,1,,,,,,,,,,,,,,,,daria,patients,C,2026-03-24_18h21.29.641,asymmetry_final,2024.2.4,120,2026-03-24 18h22.38.630578 -0400,
12,12,0,1,1,baseline,17,1.7,-0.06,3.0,0.232,curv,flat_curv,0.0,0.0,0.06,pen,input_data/stims/Shape_1.70_3.00.png,input_data/stims/Shape_4.00_2.00.png,input_data/stims/Shape_0.00_2.00.png,-1,-1,1.0,1.0,-1,up,9.03893183299806,None,up,0.8430928330053575,None,None,None,['left'],[0.9799338749726303],[0.9355414170422591],up,2.0245552500127815,None,0,0,0,0,0,12,12,17,88.05733591702301,,,,,,,,,,,,,,,,,88.05200241698185,0.0007991670281626284,89.04391683399444,89.04396166699007,89.0753154589911,90.17307625000831,90.16810424998403,90.168406458979,0.00030645797960460186,91.66042566701071,91.66173462499864,91.73050775000593,91.73050775000593,91.73050775000593,91.73050775000593,91.73050775000593,91.73050775000593,91.73050775000593,93.75964545900933,"[0.232, 0.232, 0.232, 0.232, 0.232, 0.232, 0.232, 0.232, 0.232, 0.232, 0.232, 0.232, 0.232, 0.232, 0.232, 0.232, 0.232, 0.232, 0.232, 0.232, 0.232, 0.232, 0.232, 0.232, 0.232, 0.232, 0.232, 0.232, 0.232, 0.232, 0.232, 0.232, 0.232, 0.232, 0.232, 0.232, 0.232, 0.232, 0.232, 0.232, 0.232, 0.232, 0.232, 0.232, 0.232, 0.232, 0.232, 0.232, 0.232, 0.232, 0.232, 0.232, 0.232, 0.232, 0.232, 0.232, 0.232, 0.232, 0.232, 0.232, 0.232, 0.232, 0.232, 0.232, 0.232, 0.232, 0.232, 0.232, 0.232, 0.232, 0.232, 0.232, 0.232, 0.232, 0.232, 0.232, 0.232, 0.232, 0.232, 0.232, 0.232, 0.232, 0.232, 0.232, 0.232, 0.232, 0.228, 0.224, 0.22, 0.216, 0.212, 0.208, 0.204, 0.2, 0.196, 0.192, 0.188, 0.184, 0.18, 0.176, 0.172, 0.168, 0.164, 0.16, 0.156, 0.152, 0.148, 0.144, 0.14, 0.136, 0.132, 0.128, 0.124, 0.12, 0.116, 0.112, 0.108, 0.104, 0.1, 0.096, 0.092, 0.088, 0.084, 0.08, 0.076, 0.072, 0.068, 0.064, 0.06, 0.056, 0.052, 0.048, 0.044, 0.04, 0.036, 0.032, 0.028, 0.024, 0.02, 0.016, 0.012, 0.008, 0.004, 0.0, -0.004, -0.008, -0.012, -0.016, -0.02, -0.024, -0.028, -0.032, -0.036, -0.04, -0.044, -0.044, -0.044, -0.044, -0.044, -0.044, -0.044, -0.044, -0.044, -0.044, -0.044, -0.044, -0.044]",None,None,['left'],[0.9799338749726303],[0.9355414170422591],up,2.0245552500127815,None,93.75995941698784,93.76630800002022,94.02502670901595,94.01751291699475,94.01761083398014,94.02502670901595,,95.04942091699922,,95.04040579200955,0,-5,,,94.02502670901595,95.04942091699922,,,,,,,,,,,,daria,patients,C,2026-03-24_18h21.29.641,asymmetry_final,2024.2.4,120,2026-03-24 18h22.38.630578 -0400,
13,13,0,1,1,baseline,37,3.7,0.34,1.0,0.164,flat,flat_curv,0.0,0.0,-0.34,rew,input_data/stims/Shape_3.70_1.00.png,input_data/stims/Shape_4.00_2.00.png,input_data/stims/Shape_0.00_2.00.png,1,-1,1.0,-1.0,1,up,9.03893183299806,None,up,0.8430928330053575,None,None,None,['left'],[0.3088667499832809],[0.7474023750401102],up,1.0643423750298098,None,0,0,0,0,0,13,13,37,95.04942091699922,,,,,,,,,,,,,,,,,95.04122795898002,0.0008081250125542283,96.03320829197764,96.03326375002507,96.07252024998888,97.16612025001086,97.16101283399621,97.16129591700155,0.00028491695411503315,98.65320520900423,98.65445395902498,98.71965791698312,98.71965791698312,98.71965791698312,98.71965791698312,98.71965791698312,98.71965791698312,98.71965791698312,99.78580474999035,"[0.164, 0.164, 0.164, 0.164, 0.164, 0.164, 0.164, 0.164, 0.164, 0.164, 0.164, 0.164, 0.164, 0.164, 0.164, 0.164, 0.164, 0.164, 0.164, 0.164, 0.164, 0.164, 0.164, 0.164, 0.164, 0.164, 0.164, 0.164, 0.164, 0.164, 0.16, 0.156, 0.152, 0.148, 0.144, 0.14, 0.136, 0.132, 0.128, 0.124, 0.12, 0.116, 0.112, 0.108, 0.104, 0.1, 0.096, 0.092, 0.088, 0.084, 0.08, 0.076, 0.072, 0.068, 0.064, 0.06, 0.056, 0.052, 0.048, 0.044, 0.04, 0.036, 0.032, 0.028, 0.024, 0.02, 0.016, 0.012, 0.008, 0.004, 0.0, -0.004, -0.008, -0.012, -0.016, -0.02, -0.024, -0.028, -0.032, -0.036, -0.04, -0.044, -0.048, -0.052, -0.056, -0.06, -0.064, -0.068, -0.072, -0.076, -0.076]",None,None,['left'],[0.3088667499832809],[0.7474023750401102],up,1.0643423750298098,None,99.78603079199092,99.79314295900986,100.04112524999073,100.03448229201604,100.0345982920262,100.04112524999073,,101.05661795899505,,101.0506462919875,1,5,100.04112524999073,101.05661795899505,,,,,,,,,,,,,,daria,patients,C,2026-03-24_18h21.29.641,asymmetry_final,2024.2.4,120,2026-03-24 18h22.38.630578 -0400,
14,14,0,1,1,baseline,35,3.5,0.3,3.0,0.196,flat,flat_curv,0.0,0.0,-0.3,rew,input_data/stims/Shape_3.50_3.00.png,input_data/stims/Shape_4.00_2.00.png,input_data/stims/Shape_0.00_2.00.png,1,-1,1.0,1.0,1,up,9.03893183299806,None,up,0.8430928330053575,None,None,None,['left'],[0.6194461249979213],[0.8834191660280339],up,1.5561508749960922,None,0,0,0,0,0,14,14,35,101.05661795899505,,,,,,,,,,,,,,,,,101.05147562501952,0.0008236250141635537,101.99347858398687,101.9935236669844,102.0258776670089,103.05048149998765,103.0431692500133,103.04345529200509,0.00029670802177861333,104.33543304202612,104.33674866700312,104.39735208399361,104.39735208399361,104.39735208399361,104.39735208399361,104.39735208399361,104.39735208399361,104.39735208399361,105.95871604199056,"[0.196, 0.196, 0.196, 0.196, 0.196, 0.196, 0.196, 0.196, 0.196, 0.196, 0.196, 0.196, 0.196, 0.196, 0.196, 0.196, 0.196, 0.196, 0.196, 0.196, 0.196, 0.196, 0.196, 0.196, 0.196, 0.196, 0.196, 0.196, 0.196, 0.196, 0.196, 0.196, 0.196, 0.196, 0.196, 0.196, 0.196, 0.196, 0.196, 0.196, 0.196, 0.196, 0.196, 0.196, 0.196, 0.196, 0.196, 0.196, 0.196, 0.196, 0.196, 0.196, 0.196, 0.196, 0.192, 0.188, 0.184, 0.18, 0.176, 0.172, 0.168, 0.164, 0.16, 0.156, 0.152, 0.148, 0.144, 0.14, 0.136, 0.132, 0.128, 0.124, 0.12, 0.116, 0.112, 0.108, 0.104, 0.1, 0.096, 0.092, 0.088, 0.084, 0.08, 0.076, 0.072, 0.068, 0.064, 0.06, 0.056, 0.052, 0.048, 0.044, 0.04, 0.036, 0.032, 0.028, 0.024, 0.02, 0.016, 0.012, 0.008, 0.004, 0.0, -0.004, -0.008, -0.012, -0.016, -0.02, -0.024, -0.028, -0.032, -0.036, -0.04, -0.044, -0.048, -0.052, -0.056, -0.06, -0.064, -0.068, -0.072, -0.076, -0.08, -0.084, -0.088, -0.092, -0.096, -0.1, -0.1, -0.1, -0.1, -0.1, -0.1, -0.1]",None,None,['left'],[0.6194461249979213],[0.8834191660280339],up,1.5561508749960922,None,105.95907183398958,105.96617999998853,106.22490954201203,106.2178895000252,106.21798412501812,106.22490954201203,,107.3004399589845,,107.29035104200011,1,5,106.22490954201203,107.3004399589845,,,,,,,,,,,,,,daria,patients,C,2026-03-24_18h21.29.641,asymmetry_final,2024.2.4,120,2026-03-24 18h22.38.630578 -0400,
15,15,0,1,1,baseline,36,3.7,0.34,1.0,-0.028,flat,curv_flat,0.0,0.0,0.34,rew,input_data/stims/Shape_3.70_1.00.png,input_data/stims/Shape_0.00_2.00.png,input_data/stims/Shape_4.00_2.00.png,1,1,-1.0,-1.0,1,up,9.03893183299806,None,up,0.8430928330053575,None,None,None,"['left', 'right']","[0.5437377910129726, 0.9817860830225982]","[0.17584587499732152, 0.4080661659827456]",up,1.5557099990546703,None,0,0,0,0,0,15,15,36,107.3004399589845,,,,,,,,,,,,,,,,,107.29119004198583,0.0008234579581767321,108.3831142919953,108.38316870899871,108.42077866697218,109.50713229196845,109.50193308398593,109.50225545902504,0.00032462499802932143,110.99431629199535,110.99561954202363,111.05504366697278,111.05504366697278,111.05504366697278,111.05504366697278,111.05504366697278,111.05504366697278,111.05504366697278,112.61913825001102,"[-0.028, -0.028, -0.028, -0.028, -0.028, -0.028, -0.028, -0.028, -0.028, -0.028, -0.028, -0.028, -0.028, -0.028, -0.028, -0.028, -0.028, -0.028, -0.028, -0.028, -0.028, -0.028, -0.028, -0.028, -0.028, -0.028, -0.028, -0.028, -0.028, -0.028, -0.028, -0.028, -0.028, -0.028, -0.028, -0.028, -0.028, -0.028, -0.028, -0.028, -0.028, -0.028, -0.028, -0.028, -0.028, -0.028, -0.028, -0.028, -0.028, -0.028, -0.028, -0.028, -0.028, -0.028, -0.028, -0.028, -0.032, -0.036, -0.04, -0.044, -0.048, -0.052, -0.056, -0.06, -0.064, -0.068, -0.072, -0.076, -0.08, -0.084, -0.084, -0.084, -0.084, -0.084, -0.084, -0.084, -0.084, -0.084, -0.084, -0.084, -0.084, -0.084, -0.084, -0.084, -0.084, -0.084, -0.084, -0.084, -0.084, -0.084, -0.084, -0.08, -0.076, -0.072, -0.068, -0.064, -0.06, -0.056, -0.052, -0.048, -0.044, -0.04, -0.036, -0.032, -0.028, -0.024, -0.02, -0.016, -0.012, -0.008, -0.004, 0.0, 0.004, 0.008, 0.012, 0.016, 0.02, 0.024, 0.028, 0.032, 0.036, 0.036, 0.036, 0.036, 0.036, 0.036, 0.036, 0.036, 0.036, 0.036, 0.036, 0.036, 0.036, 0.036, 0.036, 0.036, 0.036]",None,None,"['left', 'right']","[0.5437377910129726, 0.9817860830225982]","[0.17584587499732152, 0.4080661659827456]",up,1.5557099990546703,None,112.61956508399453,112.63390845898539,112.92566716700094,112.91806116700172,112.9181692089769,112.92566716700094,,114.04252145899227,,114.03491129202303,1,5,112.92566716700094,114.04252145899227,,,,,,,,,,,,,,daria,patients,C,2026-03-24_18h21.29.641,asymmetry_final,2024.2.4,120,2026-03-24 18h22.38.630578 -0400,
16,16,0,1,1,baseline,38,3.9,0.38,3.0,-0.008,flat,curv_flat,0.0,0.0,0.38,rew,input_data/stims/Shape_3.90_3.00.png,input_data/stims/Shape_0.00_2.00.png,input_data/stims/Shape_4.00_2.00.png,1,1,-1.0,1.0,1,up,9.03893183299806,None,up,0.8430928330053575,None,None,None,"['right', 'right']","[0.7674113329849206, 1.405250417010393]","[0.29917737504001707, 0.17600783298257738]",up,1.718875874998048,None,0,0,0,0,0,16,16,38,114.04252145899227,,,,,,,,,,,,,,,,,114.03607654199004,0.0011433340259827673,114.92809595901053,114.9281505420222,114.96014679200016,116.02396283397684,116.01872225000989,116.01905220898334,0.0003403750015422702,117.36105558398413,117.36226241698023,117.42512670898577,117.42512670898577,117.42512670898577,117.42512670898577,117.42512670898577,117.42512670898577,117.42512670898577,119.15227691701148,"[-0.008, -0.008, -0.008, -0.008, -0.008, -0.008, -0.008, -0.008, -0.008, -0.008, -0.008, -0.008, -0.008, -0.008, -0.008, -0.008, -0.008, -0.008, -0.008, -0.008, -0.008, -0.008, -0.008, -0.008, -0.008, -0.008, -0.008, -0.008, -0.008, -0.008, -0.008, -0.008, -0.008, -0.008, -0.008, -0.008, -0.008, -0.008, -0.008, -0.008, -0.008, -0.008, -0.008, -0.008, -0.008, -0.008, -0.008, -0.008, -0.008, -0.008, -0.008, -0.008, -0.008, -0.008, -0.008, -0.008, -0.008, -0.008, -0.008, -0.008, -0.008, -0.008, -0.008, -0.008, -0.008, -0.008, -0.008, -0.008, -0.008, -0.008, -0.008, -0.004, 0.0, 0.004, 0.008, 0.012, 0.016, 0.02, 0.024, 0.028, 0.032, 0.036, 0.04, 0.044, 0.048, 0.052, 0.056, 0.06, 0.064, 0.068, 0.072, 0.076, 0.08, 0.084, 0.088, 0.088, 0.088, 0.088, 0.088, 0.088, 0.088, 0.088, 0.088, 0.088, 0.088, 0.088, 0.088, 0.088, 0.088, 0.088, 0.088, 0.088, 0.088, 0.088, 0.088, 0.088, 0.088, 0.088, 0.088, 0.088, 0.088, 0.088, 0.088, 0.088, 0.088, 0.092, 0.096, 0.1, 0.104, 0.108, 0.112, 0.116, 0.12, 0.124, 0.128, 0.132, 0.136, 0.14, 0.14, 0.14, 0.14, 0.14, 0.14, 0.14, 0.14, 0.14, 0.14, 0.14, 0.14, 0.14, 0.14, 0.14]",None,None,"['right', 'right']","[0.7674113329849206, 1.405250417010393]","[0.29917737504001707, 0.17600783298257738]",up,1.718875874998048,None,119.15271325001959,119.15978162497049,119.40872562502045,119.40131570899393,119.40140995901311,119.40872562502045,,120.43366158398567,,120.42390975001035,1,5,119.40872562502045,120.43366158398567,,,,,,,,,,,,,,daria,patients,C,2026-03-24_18h21.29.641,asymmetry_final,2024.2.4,120,2026-03-24 18h22.38.630578 -0400,
17,17,0,1,1,baseline,19,1.9,-0.02,3.0,0.316,curv,flat_curv,0.0,0.0,0.02,pen,input_data/stims/Shape_1.90_3.00.png,input_data/stims/Shape_4.00_2.00.png,input_data/stims/Shape_0.00_2.00.png,-1,-1,1.0,1.0,-1,up,9.03893183299806,None,up,0.8430928330053575,None,None,None,['left'],[0.7056531659909524],[0.615295999974478],up,1.4692367910174653,None,0,0,0,0,0,17,17,19,120.43366158398567,,,,,,,,,,,,,,,,,120.4247509589768,0.0008253330015577376,121.51668637502007,121.5167476250208,121.55228733399417,122.56652587500867,122.55924245901406,122.55950037500588,0.0002644169726409018,124.0014732920099,124.0027610840043,124.06236037501367,124.06236037501367,124.06236037501367,124.06236037501367,124.06236037501367,124.06236037501367,124.06236037501367,125.53833604202373,"[0.316, 0.316, 0.316, 0.316, 0.316, 0.316, 0.316, 0.316, 0.316, 0.316, 0.316, 0.316, 0.316, 0.316, 0.316, 0.316, 0.316, 0.316, 0.316, 0.316, 0.316, 0.316, 0.316, 0.316, 0.316, 0.316, 0.316, 0.316, 0.316, 0.316, 0.316, 0.316, 0.316, 0.316, 0.316, 0.316, 0.316, 0.316, 0.316, 0.316, 0.316, 0.316, 0.316, 0.316, 0.316, 0.316, 0.316, 0.316, 0.316, 0.316, 0.316, 0.316, 0.316, 0.316, 0.316, 0.316, 0.316, 0.316, 0.316, 0.316, 0.316, 0.316, 0.316, 0.316, 0.316, 0.316, 0.312, 0.308, 0.304, 0.3, 0.296, 0.292, 0.288, 0.284, 0.28, 0.276, 0.272, 0.268, 0.264, 0.26, 0.256, 0.252, 0.248, 0.244, 0.24, 0.236, 0.232, 0.228, 0.224, 0.22, 0.216, 0.212, 0.208, 0.204, 0.2, 0.196, 0.192, 0.188, 0.184, 0.18, 0.176, 0.172, 0.168, 0.164, 0.16, 0.156, 0.152, 0.148, 0.144, 0.14, 0.136, 0.132, 0.128, 0.124, 0.12, 0.116, 0.112, 0.108, 0.108, 0.108, 0.108, 0.108, 0.108, 0.108, 0.108, 0.108, 0.108, 0.108, 0.108, 0.108, 0.108, 0.108, 0.108]",None,None,['left'],[0.7056531659909524],[0.615295999974478],up,1.4692367910174653,None,125.53888287500013,125.54746233398328,125.82575595896924,125.81839124998078,125.81848070898559,125.82575595896924,125.82575595896924,126.86724979197606,126.86724979197606,126.85678370902315,1,1,,,,,,,,,,,,,,,,daria,patients,C,2026-03-24_18h21.29.641,asymmetry_final,2024.2.4,120,2026-03-24 18h22.38.630578 -0400,
18,18,0,1,1,baseline,10,1.1,-0.18,3.0,-0.128,curv,curv_flat,0.0,0.0,-0.18,pen,input_data/stims/Shape_1.10_3.00.png,input_data/stims/Shape_0.00_2.00.png,input_data/stims/Shape_4.00_2.00.png,-1,1,-1.0,1.0,-1,up,9.03893183299806,None,up,0.8430928330053575,None,None,None,['right'],[0.5678268749616109],[0.14773483300814405],up,0.8804673329577781,None,0,0,0,0,0,18,18,10,126.86724979197606,,,,,,,,,,,,,,,,,126.85763649997534,0.0008375420002266765,127.74962654197589,127.74967366701458,127.78159029199742,128.8663627919741,128.85983404197032,128.8601101670065,0.00028516596648842096,130.3020337499911,130.30343454197282,130.3638304999913,130.3638304999913,130.3638304999913,130.3638304999913,130.3638304999913,130.3638304999913,130.3638304999913,131.25186883402057,"[-0.128, -0.128, -0.128, -0.128, -0.128, -0.128, -0.128, -0.128, -0.128, -0.128, -0.128, -0.128, -0.128, -0.128, -0.128, -0.128, -0.128, -0.128, -0.128, -0.128, -0.128, -0.128, -0.128, -0.128, -0.128, -0.128, -0.128, -0.128, -0.128, -0.128, -0.128, -0.128, -0.128, -0.128, -0.128, -0.128, -0.128, -0.128, -0.128, -0.128, -0.128, -0.128, -0.128, -0.128, -0.128, -0.128, -0.128, -0.128, -0.128, -0.128, -0.128, -0.128, -0.128, -0.128, -0.124, -0.12, -0.116, -0.112, -0.108, -0.104, -0.1, -0.096, -0.092, -0.088, -0.084, -0.084, -0.084, -0.084, -0.084, -0.084, -0.084, -0.084, -0.084, -0.084, -0.084, -0.084, -0.084, -0.084, -0.084, -0.084, -0.084]",None,None,['right'],[0.5678268749616109],[0.14773483300814405],up,0.8804673329577781,None,131.2522188340081,131.25944287498714,131.53367874998366,131.5231560000102,131.5232708340045,131.53367874998366,131.53367874998366,132.60050395899452,132.60050395899452,132.5884939589887,1,1,,,,,,,,,,,,,,,,daria,patients,C,2026-03-24_18h21.29.641,asymmetry_final,2024.2.4,120,2026-03-24 18h22.38.630578 -0400,
19,19,0,1,1,baseline,33,3.3,0.26,3.0,-0.176,flat,flat_curv,0.0,0.0,-0.26,rew,input_data/stims/Shape_3.30_3.00.png,input_data/stims/Shape_4.00_2.00.png,input_data/stims/Shape_0.00_2.00.png,1,-1,-1.0,1.0,1,up,9.03893183299806,None,up,0.8430928330053575,None,None,None,['right'],[0.6513867909670807],[0.30330066703027114],up,1.1891805829945952,None,0,0,0,0,0,19,19,33,132.60050395899452,,,,,,,,,,,,,,,,,132.58935391699197,0.0008446249994449317,133.48125129198888,133.48129545897245,133.51270358398324,134.51855841698125,134.51088683400303,134.51117008400615,0.00029674998950213194,135.90317433397286,135.90455691696843,135.9690266670077,135.9690266670077,135.9690266670077,135.9690266670077,135.9690266670077,135.9690266670077,135.9690266670077,137.16984579199925,"[-0.176, -0.176, -0.176, -0.176, -0.176, -0.176, -0.176, -0.176, -0.176, -0.176, -0.176, -0.176, -0.176, -0.176, -0.176, -0.176, -0.176, -0.176, -0.176, -0.176, -0.176, -0.176, -0.176, -0.176, -0.176, -0.176, -0.176, -0.176, -0.176, -0.176, -0.176, -0.176, -0.176, -0.176, -0.176, -0.176, -0.176, -0.176, -0.176, -0.176, -0.176, -0.176, -0.176, -0.176, -0.176, -0.176, -0.176, -0.176, -0.176, -0.176, -0.176, -0.176, -0.176, -0.176, -0.176, -0.176, -0.176, -0.172, -0.168, -0.164, -0.16, -0.156, -0.152, -0.148, -0.144, -0.14, -0.136, -0.132, -0.128, -0.124, -0.12, -0.116, -0.112, -0.108, -0.104, -0.1, -0.096, -0.092, -0.088, -0.084, -0.08, -0.076, -0.076, -0.076, -0.076, -0.076, -0.076, -0.076, -0.076, -0.076, -0.076, -0.076, -0.076, -0.076, -0.076, -0.076, -0.076, -0.076, -0.076, -0.076, -0.076, -0.076, -0.076]",None,None,['right'],[0.6513867909670807],[0.30330066703027114],up,1.1891805829945952,None,137.17023766698549,137.17804116697516,137.43421629199293,137.42349558399292,137.42359629197745,137.43421629199293,,138.49995733401738,,138.49143395898864,1,5,137.43421629199293,138.49995733401738,,,,,,,,,,,,,,daria,patients,C,2026-03-24_18h21.29.641,asymmetry_final,2024.2.4,120,2026-03-24 18h22.38.630578 -0400,
20,20,0,1,1,baseline,22,2.3,0.06,1.0,0.232,flat,curv_flat,0.0,0.0,0.06,rew,input_data/stims/Shape_2.30_1.00.png,input_data/stims/Shape_0.00_2.00.png,input_data/stims/Shape_4.00_2.00.png,1,1,1.0,-1.0,1,up,9.03893183299806,None,up,0.8430928330053575,None,None,None,['left'],[0.4793589159962721],[0.8873955419985577],up,1.5310965409735218,None,0,0,0,0,0,20,20,22,138.49995733401738,,,,,,,,,,,,,,,,,138.49228283402044,0.0008291659760288894,139.43430487497244,139.43435829202645,139.46625545900315,140.5405486249947,140.53521349997027,140.53556095901877,0.0003583749639801681,141.92749312502565,141.92882862500846,141.99029654200422,141.99029654200422,141.99029654200422,141.99029654200422,141.99029654200422,141.99029654200422,141.99029654200422,143.52793316700263,"[0.232, 0.232, 0.232, 0.232, 0.232, 0.232, 0.232, 0.232, 0.232, 0.232, 0.232, 0.232, 0.232, 0.232, 0.232, 0.232, 0.232, 0.232, 0.232, 0.232, 0.232, 0.232, 0.232, 0.232, 0.232, 0.232, 0.232, 0.232, 0.232, 0.232, 0.232, 0.232, 0.232, 0.232, 0.232, 0.232, 0.232, 0.232, 0.232, 0.232, 0.232, 0.232, 0.232, 0.228, 0.224, 0.22, 0.216, 0.212, 0.208, 0.204, 0.2, 0.196, 0.192, 0.188, 0.184, 0.18, 0.176, 0.172, 0.168, 0.164, 0.16, 0.156, 0.152, 0.148, 0.144, 0.14, 0.136, 0.132, 0.128, 0.124, 0.12, 0.116, 0.112, 0.108, 0.104, 0.1, 0.096, 0.092, 0.088, 0.084, 0.08, 0.076, 0.072, 0.068, 0.064, 0.06, 0.056, 0.052, 0.048, 0.044, 0.04, 0.036, 0.032, 0.028, 0.024, 0.02, 0.016, 0.012, 0.008, 0.004, 0.0, -0.004, -0.008, -0.012, -0.016, -0.02, -0.024, -0.024, -0.024, -0.024, -0.024, -0.024, -0.024, -0.024, -0.024, -0.024, -0.024, -0.024, -0.024, -0.024, -0.024]",None,None,['left'],[0.4793589159962721],[0.8873955419985577],up,1.5310965409735218,None,143.52844754199032,143.53715483401902,143.79112775000976,143.78448791697156,143.7845736250165,143.79112775000976,,144.89147733402206,,144.8847130839713,0,-1,,,,,143.79112775000976,144.89147733402206,,,,,,,,,,daria,patients,C,2026-03-24_18h21.29.641,asymmetry_final,2024.2.4,120,2026-03-24 18h22.38.630578 -0400,
21,21,0,1,1,baseline,26,2.7,0.14,3.0,0.072,flat,curv_flat,0.0,0.0,0.14,rew,input_data/stims/Shape_2.70_3.00.png,input_data/stims/Shape_0.00_2.00.png,input_data/stims/Shape_4.00_2.00.png,1,1,1.0,1.0,1,up,9.03893183299806,None,up,0.8430928330053575,None,None,None,['left'],[0.7569658739957958],[0.17544650001218542],up,1.3455064989975654,None,0,0,0,0,0,21,21,26,144.89147733402206,,,,,,,,,,,,,,,,,144.88562345900573,0.0009042500169016421,145.9276317919721,145.92768558399985,145.967070624989,147.00100491702324,146.99457179202,146.99486362497555,0.0003030420048162341,148.33682854200015,148.33813649998046,148.40070704201935,148.40070704201935,148.40070704201935,148.40070704201935,148.40070704201935,148.40070704201935,148.40070704201935,149.75572458398528,"[0.072, 0.072, 0.072, 0.072, 0.072, 0.072, 0.072, 0.072, 0.072, 0.072, 0.072, 0.072, 0.072, 0.072, 0.072, 0.072, 0.072, 0.072, 0.072, 0.072, 0.072, 0.072, 0.072, 0.072, 0.072, 0.072, 0.072, 0.072, 0.072, 0.072, 0.072, 0.072, 0.072, 0.072, 0.072, 0.072, 0.072, 0.072, 0.072, 0.072, 0.072, 0.072, 0.072, 0.072, 0.072, 0.072, 0.072, 0.072, 0.072, 0.072, 0.072, 0.072, 0.072, 0.072, 0.072, 0.072, 0.072, 0.072, 0.072, 0.072, 0.072, 0.072, 0.072, 0.072, 0.072, 0.072, 0.072, 0.072, 0.072, 0.072, 0.072, 0.072, 0.072, 0.068, 0.064, 0.06, 0.056, 0.052, 0.048, 0.044, 0.04, 0.036, 0.032, 0.028, 0.024, 0.02, 0.016, 0.016, 0.016, 0.016, 0.016, 0.016, 0.016, 0.016, 0.016, 0.016, 0.016, 0.016, 0.016, 0.016, 0.016, 0.016, 0.016, 0.016, 0.016, 0.016, 0.016, 0.016, 0.016, 0.016, 0.016, 0.016, 0.016, 0.016, 0.016, 0.016, 0.016, 0.016, 0.016, 0.016, 0.016, 0.016, 0.016]",None,None,['left'],[0.7569658739957958],[0.17544650001218542],up,1.3455064989975654,None,149.75599220901495,149.76297262497246,150.02469791698968,150.01814629201544,150.01825445902068,150.02469791698968,,151.04126545897452,,151.03481433400884,1,5,150.02469791698968,151.04126545897452,,,,,,,,,,,,,,daria,patients,C,2026-03-24_18h21.29.641,asymmetry_final,2024.2.4,120,2026-03-24 18h22.38.630578 -0400,
22,22,0,1,1,baseline,31,3.1,0.22,3.0,-0.076,flat,flat_curv,0.0,0.0,-0.22,rew,input_data/stims/Shape_3.10_3.00.png,input_data/stims/Shape_4.00_2.00.png,input_data/stims/Shape_0.00_2.00.png,1,-1,-1.0,1.0,1,up,9.03893183299806,None,up,0.8430928330053575,None,None,None,['right'],[0.6075115419807844],[0.07201787503436208],up,1.214755207998678,None,0,0,0,0,0,22,22,31,151.04126545897452,,,,,,,,,,,,,,,,,151.0357322919881,0.0008932499913498759,152.12774650001666,152.12780237500556,152.15949408401502,153.33418687497033,153.3262097919942,153.32649700000184,0.00030158297158777714,154.71848212496843,154.71980283397716,154.78065583400894,154.78065583400894,154.78065583400894,154.78065583400894,154.78065583400894,154.78065583400894,154.78065583400894,156.00272549997317,"[-0.076, -0.076, -0.076, -0.076, -0.076, -0.076, -0.076, -0.076, -0.076, -0.076, -0.076, -0.076, -0.076, -0.076, -0.076, -0.076, -0.076, -0.076, -0.076, -0.076, -0.076, -0.076, -0.076, -0.076, -0.076, -0.076, -0.076, -0.076, -0.076, -0.076, -0.076, -0.076, -0.076, -0.076, -0.076, -0.076, -0.076, -0.076, -0.076, -0.076, -0.076, -0.076, -0.076, -0.076, -0.076, -0.076, -0.076, -0.076, -0.076, -0.076, -0.076, -0.076, -0.076, -0.076, -0.076, -0.076, -0.072, -0.068, -0.064, -0.06, -0.056, -0.056, -0.056, -0.056, -0.056, -0.056, -0.056, -0.056, -0.056, -0.056, -0.056, -0.056, -0.056, -0.056, -0.056, -0.056, -0.056, -0.056, -0.056, -0.056, -0.056, -0.056, -0.056, -0.056, -0.056, -0.056, -0.056, -0.056, -0.056, -0.056, -0.056, -0.056, -0.056, -0.056, -0.056, -0.056, -0.056, -0.056, -0.056, -0.056, -0.056, -0.056, -0.056, -0.056, -0.056, -0.056, -0.056]",None,None,['right'],[0.6075115419807844],[0.07201787503436208],up,1.214755207998678,None,156.00312091701198,156.01040708401706,156.27479200001108,156.26792075001867,156.2679812089773,156.27479200001108,,157.28474520897726,,157.27551016700454,1,5,156.27479200001108,157.28474520897726,,,,,,,,,,,,,,daria,patients,C,2026-03-24_18h21.29.641,asymmetry_final,2024.2.4,120,2026-03-24 18h22.38.630578 -0400,
23,23,0,1,1,baseline,11,1.1,-0.18,1.0,0.388,curv,flat_curv,0.0,0.0,0.18,pen,input_data/stims/Shape_1.10_1.00.png,input_data/stims/Shape_4.00_2.00.png,input_data/stims/Shape_0.00_2.00.png,-1,-1,1.0,-1.0,-1,up,9.03893183299806,None,up,0.8430928330053575,None,None,None,['left'],[0.7057892919983715],[0.2951994580216706],up,1.1505304999882355,None,0,0,0,0,0,23,23,11,157.28474520897726,,,,,,,,,,,,,,,,,157.27636645897292,0.0008399999933317304,158.2182565840194,158.2183035420021,158.25359866698273,159.4003378750058,159.39518520899583,159.39547045901418,0.00026879203505814075,160.83742087497376,160.83879883401096,160.90084104199195,160.90084104199195,160.90084104199195,160.90084104199195,160.90084104199195,160.90084104199195,160.90084104199195,162.05646912497468,"[0.388, 0.388, 0.388, 0.388, 0.388, 0.388, 0.388, 0.388, 0.388, 0.388, 0.388, 0.388, 0.388, 0.388, 0.388, 0.388, 0.388, 0.388, 0.388, 0.388, 0.388, 0.388, 0.388, 0.388, 0.388, 0.388, 0.388, 0.388, 0.388, 0.388, 0.388, 0.388, 0.388, 0.388, 0.388, 0.388, 0.388, 0.388, 0.388, 0.388, 0.388, 0.388, 0.388, 0.388, 0.388, 0.388, 0.388, 0.388, 0.388, 0.388, 0.388, 0.388, 0.388, 0.388, 0.388, 0.388, 0.388, 0.388, 0.388, 0.388, 0.388, 0.388, 0.388, 0.388, 0.388, 0.388, 0.384, 0.38, 0.376, 0.372, 0.368, 0.364, 0.36, 0.356, 0.352, 0.348, 0.344, 0.34, 0.336, 0.332, 0.328, 0.324, 0.32, 0.316, 0.312, 0.308, 0.304, 0.3, 0.296, 0.292, 0.288, 0.288, 0.288, 0.288, 0.288, 0.288, 0.288, 0.288, 0.288, 0.288, 0.288, 0.288, 0.288, 0.288, 0.288, 0.288]",None,None,['left'],[0.7057892919983715],[0.2951994580216706],up,1.1505304999882355,None,162.05684829200618,162.0637941249879,162.32436112500727,162.31768470897805,162.31779308401747,162.32436112500727,162.32436112500727,163.35786816698965,163.35786816698965,163.35187700000824,1,1,,,,,,,,,,,,,,,,daria,patients,C,2026-03-24_18h21.29.641,asymmetry_final,2024.2.4,120,2026-03-24 18h22.38.630578 -0400,
24,24,0,1,1,baseline,3,0.3,-0.34,3.0,-0.044,curv,flat_curv,0.0,0.0,0.34,pen,input_data/stims/Shape_0.30_3.00.png,input_data/stims/Shape_4.00_2.00.png,input_data/stims/Shape_0.00_2.00.png,-1,-1,-1.0,1.0,-1,up,9.03893183299806,None,up,0.8430928330053575,None,None,None,['right'],[0.4496949160238728],[1.0034411670058034],up,1.6764455829979852,None,0,0,0,0,0,24,24,3,163.35786816698965,,,,,,,,,,,,,,,,,163.35276283399435,0.0008688340312801301,164.24471150001045,164.24476008402416,164.2806134999846,165.33463333401596,165.32826249999925,165.328546041972,0.0002940839622169733,166.77050158398924,166.77209995902376,166.85915008396842,166.85915008396842,166.85915008396842,166.85915008396842,166.85915008396842,166.85915008396842,166.85915008396842,168.54232725000475,"[-0.044, -0.044, -0.044, -0.044, -0.044, -0.044, -0.044, -0.044, -0.044, -0.044, -0.044, -0.044, -0.044, -0.044, -0.044, -0.044, -0.044, -0.044, -0.044, -0.044, -0.044, -0.044, -0.044, -0.044, -0.044, -0.044, -0.044, -0.044, -0.044, -0.044, -0.044, -0.044, -0.044, -0.044, -0.044, -0.044, -0.044, -0.044, -0.044, -0.044, -0.044, -0.04, -0.036, -0.032, -0.028, -0.024, -0.02, -0.016, -0.012, -0.008, -0.004, 0.0, 0.004, 0.008, 0.012, 0.016, 0.02, 0.024, 0.028, 0.032, 0.036, 0.04, 0.044, 0.048, 0.052, 0.056, 0.06, 0.064, 0.068, 0.072, 0.076, 0.08, 0.084, 0.088, 0.092, 0.096, 0.1, 0.104, 0.108, 0.112, 0.116, 0.12, 0.124, 0.128, 0.132, 0.136, 0.14, 0.144, 0.148, 0.152, 0.156, 0.16, 0.164, 0.168, 0.172, 0.176, 0.18, 0.184, 0.188, 0.192, 0.196, 0.2, 0.204, 0.208, 0.212, 0.216, 0.22, 0.224, 0.228, 0.232, 0.236, 0.24, 0.244, 0.248, 0.252, 0.256, 0.26, 0.264, 0.268, 0.272, 0.276, 0.28, 0.284, 0.288, 0.292, 0.292, 0.292, 0.292, 0.292, 0.292, 0.292, 0.292, 0.292, 0.292, 0.292, 0.292, 0.292, 0.292, 0.292, 0.292, 0.292, 0.292, 0.292, 0.292]",None,None,['right'],[0.4496949160238728],[1.0034411670058034],up,1.6764455829979852,None,168.54287158400984,168.55071466701338,168.81727487500757,168.80677833402297,168.8068812090205,168.81727487500757,168.81727487500757,169.8588281670236,169.8588281670236,169.85176495899213,1,1,,,,,,,,,,,,,,,,daria,patients,C,2026-03-24_18h21.29.641,asymmetry_final,2024.2.4,120,2026-03-24 18h22.38.630578 -0400,
25,25,0,1,1,baseline,1,0.1,-0.38,1.0,-0.192,curv,flat_curv,0.0,0.0,0.38,pen,input_data/stims/Shape_0.10_1.00.png,input_data/stims/Shape_4.00_2.00.png,input_data/stims/Shape_0.00_2.00.png,-1,-1,-1.0,-1.0,-1,up,9.03893183299806,None,up,0.8430928330053575,None,None,None,['right'],[0.36479895800584927],[1.4272729170043021],up,1.9351856670109555,None,0,0,0,0,0,25,25,1,169.8588281670236,,,,,,,,,,,,,,,,,169.85279333399376,0.001008082996122539,170.8947933340096,170.8948485419969,170.92718358401908,172.00028812501114,171.99467612500302,171.99493225000333,0.00028370803920552135,173.48686704202555,173.48839745897567,173.55258000001777,173.55258000001777,173.55258000001777,173.55258000001777,173.55258000001777,173.55258000001777,173.55258000001777,175.49712304200511,"[-0.192, -0.192, -0.192, -0.192, -0.192, -0.192, -0.192, -0.192, -0.192, -0.192, -0.192, -0.192, -0.192, -0.192, -0.192, -0.192, -0.192, -0.192, -0.192, -0.192, -0.192, -0.192, -0.192, -0.192, -0.192, -0.192, -0.192, -0.192, -0.192, -0.188, -0.184, -0.18, -0.176, -0.172, -0.168, -0.164, -0.16, -0.156, -0.152, -0.148, -0.144, -0.14, -0.136, -0.132, -0.128, -0.124, -0.12, -0.116, -0.112, -0.108, -0.104, -0.1, -0.096, -0.092, -0.088, -0.084, -0.08, -0.076, -0.072, -0.068, -0.064, -0.06, -0.056, -0.052, -0.048, -0.044, -0.04, -0.036, -0.032, -0.028, -0.024, -0.02, -0.016, -0.012, -0.008, -0.004, 0.0, 0.004, 0.008, 0.012, 0.016, 0.02, 0.024, 0.028, 0.032, 0.036, 0.04, 0.044, 0.048, 0.052, 0.056, 0.06, 0.064, 0.068, 0.072, 0.076, 0.08, 0.084, 0.088, 0.092, 0.096, 0.1, 0.104, 0.108, 0.112, 0.116, 0.12, 0.124, 0.128, 0.132, 0.136, 0.14, 0.144, 0.148, 0.152, 0.156, 0.16, 0.164, 0.168, 0.172, 0.176, 0.18, 0.184, 0.188, 0.192, 0.196, 0.2, 0.204, 0.208, 0.212, 0.216, 0.22, 0.224, 0.228, 0.232, 0.236, 0.24, 0.244, 0.248, 0.252, 0.256, 0.26, 0.264, 0.268, 0.272, 0.276, 0.28, 0.284, 0.288, 0.292, 0.292, 0.292, 0.292, 0.292, 0.292, 0.292, 0.292, 0.292, 0.292, 0.292, 0.292, 0.292, 0.292, 0.292, 0.292]",None,None,['right'],[0.36479895800584927],[1.4272729170043021],up,1.9351856670109555,None,175.4975733750034,175.5045843750122,175.77507829200476,175.768233958981,175.76830141700339,175.77507829200476,175.77507829200476,176.80905670899665,176.80905670899665,176.80249254201772,1,1,,,,,,,,,,,,,,,,daria,patients,C,2026-03-24_18h21.29.641,asymmetry_final,2024.2.4,120,2026-03-24 18h22.38.630578 -0400,
26,26,0,1,1,baseline,15,1.5,-0.1,1.0,0.384,curv,flat_curv,0.0,0.0,0.1,pen,input_data/stims/Shape_1.50_1.00.png,input_data/stims/Shape_4.00_2.00.png,input_data/stims/Shape_0.00_2.00.png,-1,-1,1.0,-1.0,-1,up,9.03893183299806,None,up,0.8430928330053575,None,None,None,['left'],[0.5923782490426674],[0.943230249977205],up,1.7091695830458775,None,0,0,0,0,0,26,26,15,176.80905670899665,,,,,,,,,,,,,,,,,176.80348800000502,0.0009715830092318356,177.84543437499087,177.84548570902552,177.87660087499535,179.24233737500617,179.2357866250095,179.2361271249829,0.00035387498792260885,180.67819524998777,180.67949995899107,180.7391622500145,180.7391622500145,180.7391622500145,180.7391622500145,180.7391622500145,180.7391622500145,180.7391622500145,182.46150533400942,"[0.384, 0.384, 0.384, 0.384, 0.384, 0.384, 0.384, 0.384, 0.384, 0.384, 0.384, 0.384, 0.384, 0.384, 0.384, 0.384, 0.384, 0.384, 0.384, 0.384, 0.384, 0.384, 0.384, 0.384, 0.384, 0.384, 0.384, 0.384, 0.384, 0.384, 0.384, 0.384, 0.384, 0.384, 0.384, 0.384, 0.384, 0.384, 0.384, 0.384, 0.384, 0.384, 0.384, 0.384, 0.384, 0.384, 0.384, 0.384, 0.384, 0.384, 0.384, 0.38, 0.376, 0.372, 0.368, 0.364, 0.36, 0.356, 0.352, 0.348, 0.344, 0.34, 0.336, 0.332, 0.328, 0.324, 0.32, 0.316, 0.312, 0.308, 0.304, 0.3, 0.296, 0.292, 0.288, 0.284, 0.28, 0.276, 0.272, 0.268, 0.264, 0.26, 0.256, 0.252, 0.248, 0.244, 0.24, 0.236, 0.232, 0.228, 0.224, 0.22, 0.216, 0.212, 0.208, 0.204, 0.2, 0.196, 0.192, 0.188, 0.184, 0.18, 0.176, 0.172, 0.168, 0.164, 0.16, 0.156, 0.152, 0.148, 0.144, 0.14, 0.136, 0.132, 0.128, 0.124, 0.12, 0.116, 0.112, 0.108, 0.104, 0.1, 0.096, 0.092, 0.088, 0.084, 0.08, 0.076, 0.072, 0.068, 0.064, 0.064, 0.064, 0.064, 0.064, 0.064, 0.064, 0.064, 0.064, 0.064, 0.064, 0.064, 0.064, 0.064, 0.064]",None,None,['left'],[0.5923782490426674],[0.943230249977205],up,1.7091695830458775,None,182.46221966698067,182.4734141670051,182.76767737499904,182.75702795898542,182.75714050000533,182.76767737499904,182.76767737499904,183.78394233400468,183.78394233400468,183.77470729197375,1,1,,,,,,,,,,,,,,,,daria,patients,C,2026-03-24_18h21.29.641,asymmetry_final,2024.2.4,120,2026-03-24 18h22.38.630578 -0400,
27,27,0,1,1,baseline,8,0.9,-0.22,3.0,0.148,curv,curv_flat,0.0,0.0,-0.22,pen,input_data/stims/Shape_0.90_3.00.png,input_data/stims/Shape_0.00_2.00.png,input_data/stims/Shape_4.00_2.00.png,-1,1,1.0,1.0,-1,up,9.03893183299806,None,up,0.8430928330053575,None,None,None,['left'],[0.4670990000013262],[0.7273603330249898],up,1.3984199580154382,None,0,0,0,0,0,27,27,8,183.78394233400468,,,,,,,,,,,,,,,,,183.7756899999804,0.0009642909863032401,184.76770270901034,184.76775033399463,184.79888479202054,186.21870079200016,186.2027491669869,186.20305545901647,0.0003167910035699606,187.59495524998056,187.59616399998777,187.65665533399442,187.65665533399442,187.65665533399442,187.65665533399442,187.65665533399442,187.65665533399442,187.65665533399442,189.06599166698288,"[0.148, 0.148, 0.148, 0.148, 0.148, 0.148, 0.148, 0.148, 0.148, 0.148, 0.148, 0.148, 0.148, 0.148, 0.148, 0.148, 0.148, 0.148, 0.148, 0.148, 0.148, 0.148, 0.148, 0.148, 0.148, 0.148, 0.148, 0.148, 0.148, 0.148, 0.148, 0.148, 0.148, 0.148, 0.148, 0.148, 0.148, 0.148, 0.148, 0.148, 0.148, 0.144, 0.14, 0.136, 0.132, 0.128, 0.124, 0.12, 0.116, 0.112, 0.108, 0.104, 0.1, 0.096, 0.092, 0.088, 0.084, 0.08, 0.076, 0.072, 0.068, 0.064, 0.06, 0.056, 0.052, 0.048, 0.044, 0.04, 0.036, 0.032, 0.028, 0.024, 0.02, 0.016, 0.012, 0.008, 0.004, 0.0, -0.004, -0.008, -0.012, -0.016, -0.02, -0.024, -0.028, -0.032, -0.036, -0.04, -0.044, -0.048, -0.052, -0.056, -0.06, -0.064, -0.068, -0.072, -0.072, -0.072, -0.072, -0.072, -0.072, -0.072, -0.072, -0.072, -0.072, -0.072, -0.072, -0.072, -0.072, -0.072, -0.072, -0.072, -0.072]",None,None,['left'],[0.4670990000013262],[0.7273603330249898],up,1.3984199580154382,None,189.06637974997284,189.0736153339967,189.32586949999677,189.3186609169934,189.31876749999356,189.32586949999677,189.32586949999677,190.33513045898871,190.33513045898871,190.32360341702588,1,1,,,,,,,,,,,,,,,,daria,patients,C,2026-03-24_18h21.29.641,asymmetry_final,2024.2.4,120,2026-03-24 18h22.38.630578 -0400,
28,28,0,1,1,baseline,7,0.7,-0.26,3.0,0.064,curv,flat_curv,0.0,0.0,0.26,pen,input_data/stims/Shape_0.70_3.00.png,input_data/stims/Shape_4.00_2.00.png,input_data/stims/Shape_0.00_2.00.png,-1,-1,1.0,1.0,-1,up,9.03893183299806,None,up,0.8430928330053575,None,None,None,"['left', 'right', 'right', 'right', 'right', 'right']","[0.3990877909818664, 0.9620217499905266, 1.246096957998816, 1.444692582997959, 1.6361039580078796, 1.8133792909793556]","[0.1672494169906713, 0.14008308300981298, 0.09976529201958328, 0.08811862498987466, 0.08800008299294859, 0.2120827090111561]",up,2.2334886249736883,None,0,0,0,0,0,28,28,7,190.33513045898871,,,,,,,,,,,,,,,,,190.3244813749916,0.0008590829675085843,191.26651158399181,191.26656800002092,191.3045084589976,192.55055337498197,192.54433783399872,192.54464262496913,0.0003065839991904795,193.93656529200962,193.93787062499905,193.9996979170246,193.9996979170246,193.9996979170246,193.9996979170246,193.9996979170246,193.9996979170246,193.9996979170246,196.23802012501983,"[0.064, 0.064, 0.064, 0.064, 0.064, 0.064, 0.064, 0.064, 0.064, 0.064, 0.064, 0.064, 0.064, 0.064, 0.064, 0.064, 0.064, 0.064, 0.064, 0.064, 0.064, 0.064, 0.064, 0.064, 0.064, 0.064, 0.064, 0.064, 0.064, 0.064, 0.064, 0.064, 0.064, 0.064, 0.064, 0.064, 0.064, 0.064, 0.06, 0.056, 0.052, 0.048, 0.044, 0.04, 0.036, 0.032, 0.028, 0.024, 0.02, 0.016, 0.012, 0.012, 0.012, 0.012, 0.012, 0.012, 0.012, 0.012, 0.012, 0.012, 0.012, 0.012, 0.012, 0.012, 0.012, 0.012, 0.012, 0.012, 0.012, 0.012, 0.012, 0.012, 0.012, 0.012, 0.012, 0.012, 0.012, 0.012, 0.012, 0.012, 0.012, 0.012, 0.012, 0.012, 0.012, 0.012, 0.012, 0.016, 0.02, 0.024, 0.028, 0.032, 0.036, 0.04, 0.044, 0.048, 0.052, 0.056, 0.056, 0.056, 0.056, 0.056, 0.056, 0.056, 0.056, 0.056, 0.056, 0.056, 0.06, 0.064, 0.068, 0.072, 0.076, 0.08, 0.08, 0.08, 0.08, 0.08, 0.08, 0.08, 0.08, 0.08, 0.084, 0.088, 0.092, 0.096, 0.1, 0.1, 0.1, 0.1, 0.1, 0.1, 0.1, 0.1, 0.1, 0.1, 0.1, 0.104, 0.108, 0.112, 0.116, 0.12, 0.12, 0.12, 0.12, 0.12, 0.12, 0.12, 0.12, 0.12, 0.12, 0.124, 0.128, 0.132, 0.136, 0.14, 0.144, 0.148, 0.152, 0.156, 0.16, 0.164, 0.168, 0.172, 0.176, 0.18, 0.184, 0.188, 0.192, 0.192, 0.192, 0.192, 0.192, 0.192, 0.192, 0.192, 0.192, 0.192, 0.192, 0.192, 0.192, 0.192, 0.192, 0.192, 0.192, 0.192]",None,None,"['left', 'right', 'right', 'right', 'right', 'right']","[0.3990877909818664, 0.9620217499905266, 1.246096957998816, 1.444692582997959, 1.6361039580078796, 1.8133792909793556]","[0.1672494169906713, 0.14008308300981298, 0.09976529201958328, 0.08811862498987466, 0.08800008299294859, 0.2120827090111561]",up,2.2334886249736883,None,196.23857804201543,196.24611512501724,196.4924346670159,196.4854975839844,196.48560712498147,196.4924346670159,196.4924346670159,197.50918166700285,197.50918166700285,197.50248025002657,1,1,,,,,,,,,,,,,,,,daria,patients,C,2026-03-24_18h21.29.641,asymmetry_final,2024.2.4,120,2026-03-24 18h22.38.630578 -0400,
29,29,0,1,1,baseline,2,0.3,-0.34,1.0,-0.228,curv,curv_flat,0.0,0.0,-0.34,pen,input_data/stims/Shape_0.30_1.00.png,input_data/stims/Shape_0.00_2.00.png,input_data/stims/Shape_4.00_2.00.png,-1,1,-1.0,-1.0,-1,up,9.03893183299806,None,up,0.8430928330053575,None,None,None,"['left', 'right']","[0.6331167489988729, 0.8987025829846971]","[0.07176633400376886, 0.3280424579861574]",up,1.344477666018065,None,0,0,0,0,0,29,29,2,197.50918166700285,,,,,,,,,,,,,,,,,197.5032126249862,0.0007222919957712293,198.54512979200808,198.54518779198406,198.57647774997167,199.60075074998895,199.59430991701083,199.5946012089844,0.0002972910297103226,200.9365700840135,200.93789579201257,200.9995924590039,200.9995924590039,200.9995924590039,200.9995924590039,200.9995924590039,200.9995924590039,200.9995924590039,202.35537549998844,"[-0.228, -0.228, -0.228, -0.228, -0.228, -0.228, -0.228, -0.228, -0.228, -0.228, -0.228, -0.228, -0.228, -0.228, -0.228, -0.228, -0.228, -0.228, -0.228, -0.228, -0.228, -0.228, -0.228, -0.228, -0.228, -0.228, -0.228, -0.228, -0.228, -0.228, -0.228, -0.228, -0.228, -0.228, -0.228, -0.228, -0.228, -0.228, -0.228, -0.228, -0.228, -0.228, -0.228, -0.228, -0.228, -0.228, -0.228, -0.228, -0.228, -0.228, -0.228, -0.228, -0.228, -0.228, -0.228, -0.228, -0.228, -0.228, -0.232, -0.236, -0.24, -0.244, -0.248, -0.248, -0.248, -0.248, -0.248, -0.248, -0.248, -0.248, -0.248, -0.248, -0.248, -0.248, -0.248, -0.248, -0.248, -0.248, -0.244, -0.24, -0.236, -0.232, -0.228, -0.224, -0.22, -0.216, -0.212, -0.208, -0.204, -0.2, -0.196, -0.192, -0.188, -0.184, -0.18, -0.176, -0.172, -0.168, -0.164, -0.16, -0.16, -0.16, -0.16, -0.16, -0.16, -0.16, -0.16, -0.16]",None,None,"['left', 'right']","[0.6331167489988729, 0.8987025829846971]","[0.07176633400376886, 0.3280424579861574]",up,1.344477666018065,None,202.3559255420114,202.36852420901414,202.61720766697545,202.60564074997092,202.60572445899015,202.61720766697545,202.61720766697545,203.65096370899118,203.65096370899118,203.64168745902134,1,1,,,,,,,,,,,,,,,,daria,patients,C,2026-03-24_18h21.29.641,asymmetry_final,2024.2.4,120,2026-03-24 18h22.38.630578 -0400,
30,30,0,1,1,baseline,9,0.9,-0.22,1.0,0.092,curv,flat_curv,0.0,0.0,0.22,pen,input_data/stims/Shape_0.90_1.00.png,input_data/stims/Shape_4.00_2.00.png,input_data/stims/Shape_0.00_2.00.png,-1,-1,1.0,-1.0,-1,up,9.03893183299806,None,up,0.8430928330053575,None,None,None,['left'],[1.109152749995701],[0.09941154101397842],up,1.4203146660001948,None,0,0,0,0,0,30,30,9,203.65096370899118,,,,,,,,,,,,,,,,,203.64250625000568,0.0008083750144578516,204.68446737498743,204.68451570899924,204.716682208993,205.83859766699607,205.83375641697785,205.83404295897344,0.00029558298410847783,207.32610154198483,207.32740941701923,207.38826454197988,207.38826454197988,207.38826454197988,207.38826454197988,207.38826454197988,207.38826454197988,207.38826454197988,208.82057041698135,"[0.092, 0.092, 0.092, 0.092, 0.092, 0.092, 0.092, 0.092, 0.092, 0.092, 0.092, 0.092, 0.092, 0.092, 0.092, 0.092, 0.092, 0.092, 0.092, 0.092, 0.092, 0.092, 0.092, 0.092, 0.092, 0.092, 0.092, 0.092, 0.092, 0.092, 0.092, 0.092, 0.092, 0.092, 0.092, 0.092, 0.092, 0.092, 0.092, 0.092, 0.092, 0.092, 0.092, 0.092, 0.092, 0.092, 0.092, 0.092, 0.092, 0.092, 0.092, 0.092, 0.092, 0.092, 0.092, 0.092, 0.092, 0.092, 0.092, 0.092, 0.092, 0.092, 0.092, 0.092, 0.092, 0.092, 0.092, 0.092, 0.092, 0.092, 0.092, 0.092, 0.092, 0.092, 0.092, 0.092, 0.092, 0.092, 0.092, 0.092, 0.092, 0.092, 0.092, 0.092, 0.092, 0.092, 0.092, 0.092, 0.092, 0.092, 0.092, 0.092, 0.092, 0.092, 0.092, 0.088, 0.084, 0.08, 0.076, 0.072, 0.068, 0.068, 0.068, 0.068, 0.068, 0.068, 0.068, 0.068, 0.068, 0.068, 0.068, 0.068, 0.068, 0.068, 0.068, 0.068, 0.068]",None,None,['left'],[1.109152749995701],[0.09941154101397842],up,1.4203146660001948,None,208.82109787501395,208.82971212500706,209.10080474999268,209.09111716697225,209.0912338750204,209.10080474999268,209.10080474999268,210.1185599169694,210.1185599169694,210.10845591698308,1,1,,,,,,,,,,,,,,,,daria,patients,C,2026-03-24_18h21.29.641,asymmetry_final,2024.2.4,120,2026-03-24 18h22.38.630578 -0400,
31,31,0,1,1,baseline,0,0.1,-0.38,1.0,-0.328,curv,curv_flat,0.0,0.0,-0.38,pen,input_data/stims/Shape_0.10_1.00.png,input_data/stims/Shape_0.00_2.00.png,input_data/stims/Shape_4.00_2.00.png,-1,1,-1.0,-1.0,-1,up,9.03893183299806,None,up,0.8430928330053575,None,None,None,['right'],[0.6398180410033092],[0.7632901250035502],up,1.4191406249883585,None,0,0,0,0,0,31,31,0,210.1185599169694,,,,,,,,,,,,,,,,,210.10930758400355,0.0008391670417040586,211.0013231249759,211.00138074997813,211.0335821249755,212.04078724997817,212.03530195902567,212.03557933401316,0.00028187502175569534,213.32753683399642,213.32882258400787,213.3909159169998,213.3909159169998,213.3909159169998,213.3909159169998,213.3909159169998,213.3909159169998,213.3909159169998,214.81391712499317,"[-0.328, -0.328, -0.328, -0.328, -0.328, -0.328, -0.328, -0.328, -0.328, -0.328, -0.328, -0.328, -0.328, -0.328, -0.328, -0.328, -0.328, -0.328, -0.328, -0.328, -0.328, -0.328, -0.328, -0.328, -0.328, -0.328, -0.328, -0.328, -0.328, -0.328, -0.328, -0.328, -0.328, -0.328, -0.328, -0.328, -0.328, -0.328, -0.328, -0.328, -0.328, -0.328, -0.328, -0.328, -0.328, -0.328, -0.328, -0.328, -0.328, -0.328, -0.328, -0.328, -0.328, -0.328, -0.328, -0.328, -0.328, -0.328, -0.328, -0.328, -0.328, -0.328, -0.328, -0.324, -0.32, -0.316, -0.312, -0.308, -0.304, -0.3, -0.296, -0.292, -0.288, -0.284, -0.28, -0.276, -0.272, -0.268, -0.264, -0.26, -0.256, -0.252, -0.248, -0.244, -0.24, -0.236, -0.232, -0.228, -0.224, -0.22, -0.216, -0.212, -0.208, -0.204, -0.2, -0.196, -0.192, -0.188, -0.184, -0.18, -0.176, -0.172, -0.168, -0.164, -0.16, -0.156, -0.152, -0.148, -0.144, -0.14, -0.136, -0.132, -0.128, -0.124, -0.12, -0.116, -0.112, -0.108, -0.104, -0.1, -0.096, -0.092, -0.088, -0.088, -0.088]",None,None,['right'],[0.6398180410033092],[0.7632901250035502],up,1.4191406249883585,None,214.81420766701922,214.82107150001684,215.09234166698297,215.08499683398986,215.08513958397089,215.09234166698297,215.09234166698297,216.11841420899145,216.11841420899145,216.10873233398888,1,1,,,,,,,,,,,,,,,,daria,patients,C,2026-03-24_18h21.29.641,asymmetry_final,2024.2.4,120,2026-03-24 18h22.38.630578 -0400,
32,32,0,1,1,baseline,24,2.5,0.1,3.0,0.356,flat,curv_flat,0.0,0.0,0.1,rew,input_data/stims/Shape_2.50_3.00.png,input_data/stims/Shape_0.00_2.00.png,input_data/stims/Shape_4.00_2.00.png,1,1,1.0,1.0,1,up,9.03893183299806,None,up,0.8430928330053575,None,None,None,['left'],[0.6819307080004364],[0.615260791964829],up,1.347273540974129,None,0,0,0,0,0,32,32,24,216.11841420899145,,,,,,,,,,,,,,,,,216.10960129200248,0.0008359589846804738,217.2015907500172,217.2016388339689,217.23606308398303,218.4742460839916,218.46900525002275,218.46934408397647,0.0003476659767329693,219.8114044169779,219.81275383400498,219.87246895901626,219.87246895901626,219.87246895901626,219.87246895901626,219.87246895901626,219.87246895901626,219.87246895901626,221.23002483398886,"[0.356, 0.356, 0.356, 0.356, 0.356, 0.356, 0.356, 0.356, 0.356, 0.356, 0.356, 0.356, 0.356, 0.356, 0.356, 0.356, 0.356, 0.356, 0.356, 0.356, 0.356, 0.356, 0.356, 0.356, 0.356, 0.356, 0.356, 0.356, 0.356, 0.356, 0.356, 0.356, 0.356, 0.356, 0.356, 0.356, 0.356, 0.356, 0.356, 0.356, 0.356, 0.356, 0.356, 0.356, 0.356, 0.356, 0.356, 0.356, 0.356, 0.356, 0.356, 0.356, 0.356, 0.356, 0.356, 0.356, 0.356, 0.356, 0.356, 0.356, 0.356, 0.356, 0.356, 0.356, 0.356, 0.352, 0.348, 0.344, 0.34, 0.336, 0.332, 0.328, 0.324, 0.32, 0.316, 0.312, 0.308, 0.304, 0.3, 0.296, 0.292, 0.288, 0.284, 0.28, 0.276, 0.272, 0.268, 0.264, 0.26, 0.256, 0.252, 0.248, 0.244, 0.24, 0.236, 0.232, 0.228, 0.224, 0.22, 0.216, 0.212, 0.208, 0.204, 0.2, 0.196, 0.192, 0.188, 0.184, 0.18, 0.176, 0.172, 0.168, 0.164, 0.16, 0.156, 0.152, 0.148, 0.144, 0.14, 0.14, 0.14, 0.14, 0.14, 0.14, 0.14]",None,None,['left'],[0.6819307080004364],[0.615260791964829],up,1.347273540974129,None,221.2303582499735,221.23761841701344,221.49362941697473,221.48605962499278,221.48615908401553,221.49362941697473,,222.52532645897008,,222.519175250025,1,5,221.49362941697473,222.52532645897008,,,,,,,,,,,,,,daria,patients,C,2026-03-24_18h21.29.641,asymmetry_final,2024.2.4,120,2026-03-24 18h22.38.630578 -0400,
33,33,0,1,1,baseline,34,3.5,0.3,1.0,-0.048,flat,curv_flat,0.0,0.0,0.3,rew,input_data/stims/Shape_3.50_1.00.png,input_data/stims/Shape_0.00_2.00.png,input_data/stims/Shape_4.00_2.00.png,1,1,-1.0,-1.0,1,up,9.03893183299806,None,up,0.8430928330053575,None,None,None,['right'],[0.4104598749545403],[0.4716936660115607],up,0.9177632499486208,None,0,0,0,0,0,33,33,34,222.52532645897008,,,,,,,,,,,,,,,,,222.52003595902352,0.0008459590026177466,223.56200091697974,223.56204783398425,223.59383566700853,224.73499920900213,224.72845983400475,224.7287407090189,0.0002948329783976078,226.07068066700594,226.07190995902056,226.13063604198396,226.13063604198396,226.13063604198396,226.13063604198396,226.13063604198396,226.13063604198396,226.13063604198396,227.05297941697063,"[-0.048, -0.048, -0.048, -0.048, -0.048, -0.048, -0.048, -0.048, -0.048, -0.048, -0.048, -0.048, -0.048, -0.048, -0.048, -0.048, -0.048, -0.048, -0.048, -0.048, -0.048, -0.048, -0.048, -0.048, -0.048, -0.048, -0.048, -0.048, -0.048, -0.048, -0.048, -0.048, -0.048, -0.048, -0.048, -0.048, -0.048, -0.048, -0.048, -0.048, -0.048, -0.048, -0.044, -0.04, -0.036, -0.032, -0.028, -0.024, -0.02, -0.016, -0.012, -0.008, -0.004, 0.0, 0.004, 0.008, 0.012, 0.016, 0.02, 0.024, 0.028, 0.032, 0.036, 0.04, 0.044, 0.048, 0.052, 0.056, 0.06, 0.064, 0.068, 0.072, 0.076, 0.08, 0.084, 0.088, 0.092, 0.096, 0.1, 0.104, 0.108, 0.112, 0.116, 0.116, 0.116, 0.116, 0.116]",None,None,['right'],[0.4104598749545403],[0.4716936660115607],up,0.9177632499486208,None,227.05327129201032,227.0602710840176,227.31886862497777,227.30753554200055,227.30764791701222,227.31886862497777,,228.3257227090071,,228.319313917018,1,5,227.31886862497777,228.3257227090071,,,,,,,,,,,,,,daria,patients,C,2026-03-24_18h21.29.641,asymmetry_final,2024.2.4,120,2026-03-24 18h22.38.630578 -0400,
34,34,0,1,1,baseline,27,2.7,0.14,3.0,-0.324,flat,flat_curv,0.0,0.0,-0.14,rew,input_data/stims/Shape_2.70_3.00.png,input_data/stims/Shape_4.00_2.00.png,input_data/stims/Shape_0.00_2.00.png,1,-1,-1.0,1.0,1,up,9.03893183299806,None,up,0.8430928330053575,None,None,None,['right'],[0.6960464990115725],[0.7879365420085378],up,1.5685657080030069,None,0,0,0,0,0,34,34,27,228.3257227090071,,,,,,,,,,,,,,,,,228.32021387497662,0.0008905419963411987,229.3122167920228,229.3122653340106,229.34447858401109,230.4221071670181,230.41468245896976,230.41512862499803,0.0004605830181390047,231.75705770897912,231.7583389590145,231.8201743750251,231.8201743750251,231.8201743750251,231.8201743750251,231.8201743750251,231.8201743750251,231.8201743750251,233.39881733397488,"[-0.324, -0.324, -0.324, -0.324, -0.324, -0.324, -0.324, -0.324, -0.324, -0.324, -0.324, -0.324, -0.324, -0.324, -0.324, -0.324, -0.324, -0.324, -0.324, -0.324, -0.324, -0.324, -0.324, -0.324, -0.324, -0.324, -0.324, -0.324, -0.324, -0.324, -0.324, -0.324, -0.324, -0.324, -0.324, -0.324, -0.324, -0.324, -0.324, -0.324, -0.324, -0.324, -0.324, -0.324, -0.324, -0.324, -0.324, -0.324, -0.324, -0.324, -0.324, -0.324, -0.324, -0.324, -0.324, -0.324, -0.324, -0.324, -0.32, -0.316, -0.312, -0.308, -0.304, -0.3, -0.296, -0.292, -0.288, -0.284, -0.28, -0.276, -0.272, -0.268, -0.264, -0.26, -0.256, -0.252, -0.248, -0.244, -0.24, -0.236, -0.232, -0.228, -0.224, -0.22, -0.216, -0.212, -0.208, -0.204, -0.2, -0.196, -0.192, -0.188, -0.184, -0.18, -0.176, -0.172, -0.168, -0.164, -0.16, -0.156, -0.152, -0.148, -0.144, -0.14, -0.136, -0.132, -0.128, -0.124, -0.12, -0.116, -0.112, -0.108, -0.104, -0.1, -0.1, -0.1, -0.1, -0.1, -0.1, -0.1, -0.1, -0.1]",None,None,['right'],[0.6960464990115725],[0.7879365420085378],up,1.5685657080030069,None,233.39909949997673,233.40540895902086,233.6593624589732,233.6527335839928,233.6528336670017,233.6593624589732,,234.8580544589786,,234.85235929198097,1,5,233.6593624589732,234.8580544589786,,,,,,,,,,,,,,daria,patients,C,2026-03-24_18h21.29.641,asymmetry_final,2024.2.4,120,2026-03-24 18h22.38.630578 -0400,
35,35,0,1,1,baseline,25,2.5,0.1,1.0,0.264,flat,flat_curv,0.0,0.0,-0.1,rew,input_data/stims/Shape_2.50_1.00.png,input_data/stims/Shape_4.00_2.00.png,input_data/stims/Shape_0.00_2.00.png,1,-1,1.0,-1.0,1,up,9.03893183299806,None,up,0.8430928330053575,None,None,None,['left'],[0.6430727909901179],[1.0313663340057246],up,1.705530582985375,None,0,0,0,0,0,35,35,25,234.8580544589786,,,,,,,,,,,,,,,,,234.85320533398772,0.0008365830290131271,235.74514337501023,235.74520241701975,235.7784680419718,236.77641083399067,236.77098916698014,236.77124979201471,0.00026654102839529514,238.16322654200485,238.16453883401118,238.23650279198773,238.23650279198773,238.23650279198773,238.23650279198773,238.23650279198773,238.23650279198773,238.23650279198773,239.95230541698402,"[0.264, 0.264, 0.264, 0.264, 0.264, 0.264, 0.264, 0.264, 0.264, 0.264, 0.264, 0.264, 0.264, 0.264, 0.264, 0.264, 0.264, 0.264, 0.264, 0.264, 0.264, 0.264, 0.264, 0.264, 0.264, 0.264, 0.264, 0.264, 0.264, 0.264, 0.264, 0.264, 0.264, 0.264, 0.264, 0.264, 0.264, 0.264, 0.264, 0.264, 0.264, 0.264, 0.264, 0.264, 0.264, 0.264, 0.264, 0.264, 0.264, 0.264, 0.264, 0.264, 0.264, 0.264, 0.264, 0.264, 0.26, 0.256, 0.252, 0.248, 0.244, 0.24, 0.236, 0.232, 0.228, 0.224, 0.22, 0.216, 0.212, 0.208, 0.204, 0.2, 0.196, 0.192, 0.188, 0.184, 0.18, 0.176, 0.172, 0.168, 0.164, 0.16, 0.156, 0.152, 0.148, 0.144, 0.14, 0.136, 0.132, 0.128, 0.124, 0.12, 0.116, 0.112, 0.108, 0.104, 0.1, 0.096, 0.092, 0.088, 0.084, 0.08, 0.076, 0.072, 0.068, 0.064, 0.06, 0.056, 0.052, 0.048, 0.044, 0.04, 0.036, 0.032, 0.028, 0.024, 0.02, 0.016, 0.012, 0.008, 0.004, 0.0, -0.004, -0.008, -0.012, -0.016, -0.02, -0.024, -0.028, -0.032, -0.036, -0.04, -0.044, -0.048, -0.052, -0.056, -0.056, -0.056, -0.056]",None,None,['left'],[0.6430727909901179],[1.0313663340057246],up,1.705530582985375,None,239.95260870899074,239.9686145419837,240.21858395898016,240.20794812502572,240.20808079198468,240.21858395898016,,241.22601741697872,,241.21961016696878,1,5,240.21858395898016,241.22601741697872,,,,,,,,,,,,,,daria,patients,C,2026-03-24_18h21.29.641,asymmetry_final,2024.2.4,120,2026-03-24 18h22.38.630578 -0400,
36,36,0,1,1,baseline,21,2.1,0.02,1.0,0.076,flat,flat_curv,0.0,0.0,-0.02,rew,input_data/stims/Shape_2.10_1.00.png,input_data/stims/Shape_4.00_2.00.png,input_data/stims/Shape_0.00_2.00.png,1,-1,1.0,-1.0,1,up,9.03893183299806,None,up,0.8430928330053575,None,None,None,"['left', 'left', 'left']","[0.4699468750040978, 0.7740539170335978, 0.9802140829851851]","[0.16776508302427828, 0.11582533299224451, 0.1319763750070706]",up,1.240333958005067,None,0,0,0,0,0,36,36,21,241.22601741697872,,,,,,,,,,,,,,,,,241.22033541701967,0.0007150419987738132,242.1122437089798,242.1122911249986,242.14640787499957,243.24324291700032,243.2378848749795,243.23817091697128,0.00029512500623241067,244.5301837499719,244.53150270902552,244.59221612499095,244.59221612499095,244.59221612499095,244.59221612499095,244.59221612499095,244.59221612499095,244.59221612499095,245.84061000001384,"[0.076, 0.076, 0.076, 0.076, 0.076, 0.076, 0.076, 0.076, 0.076, 0.076, 0.076, 0.076, 0.076, 0.076, 0.076, 0.076, 0.076, 0.076, 0.076, 0.076, 0.076, 0.076, 0.076, 0.076, 0.076, 0.076, 0.076, 0.076, 0.076, 0.076, 0.076, 0.076, 0.076, 0.076, 0.076, 0.076, 0.076, 0.076, 0.076, 0.076, 0.076, 0.076, 0.076, 0.076, 0.072, 0.068, 0.064, 0.06, 0.056, 0.052, 0.048, 0.044, 0.04, 0.036, 0.032, 0.028, 0.028, 0.028, 0.028, 0.028, 0.028, 0.028, 0.028, 0.028, 0.028, 0.028, 0.028, 0.028, 0.024, 0.02, 0.016, 0.012, 0.008, 0.004, 0.0, -0.004, -0.004, -0.004, -0.004, -0.004, -0.004, -0.004, -0.004, -0.004, -0.008, -0.012, -0.016, -0.02, -0.024, -0.028, -0.032, -0.036, -0.04, -0.04, -0.04, -0.04, -0.04, -0.04, -0.04, -0.04, -0.04, -0.04, -0.04, -0.04]",None,None,"['left', 'left', 'left']","[0.4699468750040978, 0.7740539170335978, 0.9802140829851851]","[0.16776508302427828, 0.11582533299224451, 0.1319763750070706]",up,1.240333958005067,None,245.84099641698413,245.84883224999066,246.10963341698516,246.10276908398373,246.10287891700864,246.10963341698516,,247.20877241698327,,247.20246483397204,1,5,246.10963341698516,247.20877241698327,,,,,,,,,,,,,,daria,patients,C,2026-03-24_18h21.29.641,asymmetry_final,2024.2.4,120,2026-03-24 18h22.38.630578 -0400,
37,37,0,1,1,baseline,29,2.9,0.18,3.0,0.28,flat,flat_curv,0.0,0.0,-0.18,rew,input_data/stims/Shape_2.90_3.00.png,input_data/stims/Shape_4.00_2.00.png,input_data/stims/Shape_0.00_2.00.png,1,-1,1.0,1.0,1,up,9.03893183299806,None,up,0.8430928330053575,None,None,None,['left'],[0.46857895801076666],[0.9473451669909991],up,1.5273121250211261,None,0,0,0,0,0,37,37,29,247.20877241698327,,,,,,,,,,,,,,,,,247.20335004199296,0.0008748749969527125,248.29537037498085,248.29542600002605,248.33445512497565,249.45695654198062,249.45228112500627,249.45254450000357,0.00026995904045179486,250.74447012500605,250.7457699169754,250.8061663749977,250.8061663749977,250.8061663749977,250.8061663749977,250.8061663749977,250.8061663749977,250.8061663749977,252.3511503339978,"[0.28, 0.28, 0.28, 0.28, 0.28, 0.28, 0.28, 0.28, 0.28, 0.28, 0.28, 0.28, 0.28, 0.28, 0.28, 0.28, 0.28, 0.28, 0.28, 0.28, 0.28, 0.28, 0.28, 0.28, 0.28, 0.28, 0.28, 0.28, 0.28, 0.28, 0.28, 0.28, 0.28, 0.28, 0.28, 0.28, 0.28, 0.28, 0.28, 0.28, 0.28, 0.28, 0.28, 0.28, 0.28, 0.28, 0.28, 0.28, 0.276, 0.272, 0.268, 0.264, 0.26, 0.256, 0.252, 0.248, 0.244, 0.24, 0.236, 0.232, 0.228, 0.224, 0.22, 0.216, 0.212, 0.208, 0.204, 0.2, 0.196, 0.192, 0.188, 0.184, 0.18, 0.176, 0.172, 0.168, 0.164, 0.16, 0.156, 0.152, 0.148, 0.144, 0.14, 0.136, 0.132, 0.128, 0.124, 0.12, 0.116, 0.112, 0.108, 0.104, 0.1, 0.096, 0.092, 0.088, 0.084, 0.08, 0.076, 0.072, 0.068, 0.064, 0.06, 0.056, 0.052, 0.048, 0.044, 0.04, 0.036, 0.032, 0.028, 0.024, 0.02, 0.016, 0.012, 0.008, 0.004, 0.0, -0.004, -0.008, -0.012, -0.016, -0.016, -0.016, -0.016, -0.016, -0.016, -0.016, -0.016]",None,None,['left'],[0.46857895801076666],[0.9473451669909991],up,1.5273121250211261,None,252.3516599999857,252.35709733399563,252.60768687498057,252.60209524998209,252.60216758400202,252.60768687498057,,253.61808366701007,,253.60903270897688,1,5,252.60768687498057,253.61808366701007,,,,,,,,,,,,,,daria,patients,C,2026-03-24_18h21.29.641,asymmetry_final,2024.2.4,120,2026-03-24 18h22.38.630578 -0400,
38,38,0,1,1,baseline,20,2.1,0.02,1.0,0.368,flat,curv_flat,0.0,0.0,0.02,rew,input_data/stims/Shape_2.10_1.00.png,input_data/stims/Shape_0.00_2.00.png,input_data/stims/Shape_4.00_2.00.png,1,1,1.0,-1.0,1,up,9.03893183299806,None,up,0.8430928330053575,None,None,None,['left'],[0.7549544990179129],[1.3520336669753306],up,2.1734869580250233,None,0,0,0,0,0,38,38,20,253.61808366701007,,,,,,,,,,,,,,,,,253.6098828749964,0.0008367910049855709,254.55184529197868,254.55190345901065,254.5847512090113,255.5846670839819,255.57906054198975,255.57936495897593,0.0003024580073542893,257.0213593749795,257.02265229198383,257.07935970899416,257.07935970899416,257.07935970899416,257.07935970899416,257.07935970899416,257.07935970899416,257.07935970899416,259.2628053340013,"[0.368, 0.368, 0.368, 0.368, 0.368, 0.368, 0.368, 0.368, 0.368, 0.368, 0.368, 0.368, 0.368, 0.368, 0.368, 0.368, 0.368, 0.368, 0.368, 0.368, 0.368, 0.368, 0.368, 0.368, 0.368, 0.368, 0.368, 0.368, 0.368, 0.368, 0.368, 0.368, 0.368, 0.368, 0.368, 0.368, 0.368, 0.368, 0.368, 0.368, 0.368, 0.368, 0.368, 0.368, 0.368, 0.368, 0.368, 0.368, 0.368, 0.368, 0.368, 0.368, 0.368, 0.368, 0.368, 0.368, 0.368, 0.368, 0.368, 0.368, 0.368, 0.368, 0.368, 0.368, 0.368, 0.368, 0.368, 0.368, 0.364, 0.36, 0.356, 0.352, 0.348, 0.344, 0.34, 0.336, 0.332, 0.328, 0.324, 0.32, 0.316, 0.312, 0.308, 0.304, 0.3, 0.296, 0.292, 0.288, 0.284, 0.28, 0.276, 0.272, 0.268, 0.264, 0.26, 0.256, 0.252, 0.248, 0.244, 0.24, 0.236, 0.232, 0.228, 0.224, 0.22, 0.216, 0.212, 0.208, 0.204, 0.2, 0.196, 0.192, 0.188, 0.184, 0.18, 0.176, 0.172, 0.168, 0.164, 0.16, 0.156, 0.152, 0.148, 0.144, 0.14, 0.136, 0.132, 0.128, 0.124, 0.12, 0.116, 0.112, 0.108, 0.104, 0.1, 0.096, 0.092, 0.088, 0.084, 0.08, 0.076, 0.072, 0.068, 0.064, 0.06, 0.056, 0.052, 0.048, 0.044, 0.04, 0.036, 0.032, 0.028, 0.024, 0.02, 0.016, 0.012, 0.008, 0.004, 0.0, -0.004, -0.008, -0.012, -0.016, -0.02, -0.024, -0.028, -0.032, -0.036, -0.04, -0.044, -0.044, -0.044, -0.044, -0.044, -0.044, -0.044, -0.044, -0.044]",None,None,['left'],[0.7549544990179129],[1.3520336669753306],up,2.1734869580250233,None,259.2631076250109,259.2844181670225,259.54314395901747,259.5363574589719,259.53648070897907,259.54314395901747,,260.6354895000113,,260.6250796249951,0,-1,,,,,259.54314395901747,260.6354895000113,,,,,,,,,,daria,patients,C,2026-03-24_18h21.29.641,asymmetry_final,2024.2.4,120,2026-03-24 18h22.38.630578 -0400,
39,39,0,1,1,baseline,16,1.7,-0.06,1.0,0.288,curv,curv_flat,0.0,0.0,-0.06,pen,input_data/stims/Shape_1.70_1.00.png,input_data/stims/Shape_0.00_2.00.png,input_data/stims/Shape_4.00_2.00.png,-1,1,1.0,-1.0,-1,up,9.03893183299806,None,up,0.8430928330053575,None,None,None,['left'],[0.8572571250260808],[0.9713104160036892],up,1.9451184160425328,None,0,0,0,0,0,39,39,16,260.6354895000113,,,,,,,,,,,,,,,,,260.6259984589997,0.000903833017218858,261.7179393749684,261.7179945000098,261.7533204589854,263.0022307090112,262.990139291971,262.99037650000537,0.00024512497475370765,264.43229895900004,264.4335927090142,264.4942423339817,264.4942423339817,264.4942423339817,264.4942423339817,264.4942423339817,264.4942423339817,264.4942423339817,266.4488242089865,"[0.288, 0.288, 0.288, 0.288, 0.288, 0.288, 0.288, 0.288, 0.288, 0.288, 0.288, 0.288, 0.288, 0.288, 0.288, 0.288, 0.288, 0.288, 0.288, 0.288, 0.288, 0.288, 0.288, 0.288, 0.288, 0.288, 0.288, 0.288, 0.288, 0.288, 0.288, 0.288, 0.288, 0.288, 0.288, 0.288, 0.288, 0.288, 0.288, 0.288, 0.288, 0.288, 0.288, 0.288, 0.288, 0.288, 0.288, 0.288, 0.288, 0.288, 0.288, 0.288, 0.288, 0.288, 0.288, 0.288, 0.288, 0.288, 0.288, 0.288, 0.288, 0.288, 0.288, 0.288, 0.288, 0.288, 0.288, 0.288, 0.288, 0.288, 0.288, 0.288, 0.288, 0.288, 0.288, 0.288, 0.288, 0.284, 0.28, 0.276, 0.272, 0.268, 0.264, 0.26, 0.256, 0.252, 0.248, 0.244, 0.24, 0.236, 0.232, 0.228, 0.224, 0.22, 0.216, 0.212, 0.208, 0.204, 0.2, 0.196, 0.192, 0.188, 0.184, 0.18, 0.176, 0.172, 0.168, 0.164, 0.16, 0.156, 0.152, 0.148, 0.144, 0.14, 0.136, 0.132, 0.128, 0.124, 0.12, 0.116, 0.112, 0.108, 0.104, 0.1, 0.096, 0.092, 0.088, 0.084, 0.08, 0.076, 0.072, 0.068, 0.064, 0.06, 0.056, 0.052, 0.048, 0.044, 0.04, 0.036, 0.032, 0.028, 0.024, 0.02, 0.016, 0.012, 0.008, 0.004, 0.0, -0.004, -0.008, -0.012, -0.016, -0.02, -0.024, -0.028, -0.028, -0.028, -0.028, -0.028, -0.028, -0.028, -0.028, -0.028, -0.028, -0.028, -0.028, -0.028, -0.028]",None,None,['left'],[0.8572571250260808],[0.9713104160036892],up,1.9451184160425328,None,266.4492762499722,266.4556652919855,266.72710045898566,266.7196065419703,266.7197374170064,266.72710045898566,266.72710045898566,267.89985404198524,267.89985404198524,267.85244679200696,1,1,,,,,,,,,,,,,,,,daria,patients,C,2026-03-24_18h21.29.641,asymmetry_final,2024.2.4,120,2026-03-24 18h22.38.630578 -0400,
0,0,0,3,1,flat_comp,113,3.7,0.34,3.0,0.244,flat,flat_curv,0.2,-0.2,-0.34,rew,input_data/stims/Shape_3.70_3.00.png,input_data/stims/Shape_4.00_2.00.png,input_data/stims/Shape_0.00_2.00.png,1,-1,1.0,1.0,1,None,,,up,0.8809173739864491,None,None,None,['left'],[0.36315041600028053],[1.6921252089668997],up,2.1097209159634076,None,1,0,1,0,0,0,0,33,273.67416729201796,,272.70422379201045,,,,272.7043010839843,None,,,272.7113205839996,272.7190442089923,272.7190442089923,273.6037213340169,up,0.8809173739864491,None,273.6673201249796,0.06351108400849625,274.7100951250177,274.7101530840155,274.7464857089799,275.8023014590144,275.78002058400307,275.78033429197967,0.0003173750010319054,277.12234812497627,277.1236717089778,277.1920750840218,277.1920750840218,277.1920750840218,277.1920750840218,277.1920750840218,277.1920750840218,277.1920750840218,279.30451083398657,"[0.244, 0.244, 0.244, 0.244, 0.244, 0.244, 0.244, 0.244, 0.244, 0.244, 0.244, 0.244, 0.244, 0.244, 0.244, 0.244, 0.244, 0.244, 0.244, 0.244, 0.244, 0.244, 0.244, 0.244, 0.244, 0.244, 0.244, 0.244, 0.244, 0.244, 0.244, 0.244, 0.244, 0.244, 0.244, 0.244, 0.244, 0.24, 0.236, 0.232, 0.228, 0.224, 0.22, 0.216, 0.212, 0.208, 0.204, 0.2, 0.196, 0.192, 0.188, 0.184, 0.18, 0.176, 0.172, 0.168, 0.164, 0.16, 0.156, 0.152, 0.148, 0.144, 0.14, 0.136, 0.132, 0.128, 0.124, 0.12, 0.116, 0.112, 0.108, 0.104, 0.1, 0.096, 0.092, 0.088, 0.084, 0.08, 0.076, 0.072, 0.068, 0.064, 0.06, 0.056, 0.052, 0.048, 0.044, 0.04, 0.036, 0.032, 0.028, 0.024, 0.02, 0.016, 0.012, 0.008, 0.004, 0.0, -0.004, -0.008, -0.012, -0.016, -0.02, -0.024, -0.028, -0.032, -0.036, -0.04, -0.044, -0.048, -0.052, -0.056, -0.06, -0.064, -0.068, -0.072, -0.076, -0.08, -0.084, -0.088, -0.092, -0.096, -0.1, -0.104, -0.108, -0.112, -0.116, -0.12, -0.124, -0.128, -0.132, -0.136, -0.14, -0.144, -0.148, -0.152, -0.156, -0.16, -0.164, -0.168, -0.172, -0.176, -0.18, -0.184, -0.188, -0.192, -0.196, -0.2, -0.204, -0.208, -0.212, -0.216, -0.22, -0.224, -0.228, -0.232, -0.236, -0.24, -0.244, -0.248, -0.252, -0.256, -0.26, -0.264, -0.268, -0.272, -0.276, -0.276, -0.276, -0.276, -0.276, -0.276, -0.276]",None,None,['left'],[0.36315041600028053],[1.6921252089668997],up,2.1097209159634076,None,279.30484770901967,279.3115236670128,279.601596374996,279.59247970901197,279.5926102499943,279.601596374996,,280.6355689589982,,280.62497270898893,1,5,279.601596374996,280.6355689589982,,,,,267.893420709006,267.89985404198524,267.89985404198524,272.7038517090259,84,10,up,4.797511790995486,None,daria,patients,C,2026-03-24_18h21.29.641,asymmetry_final,2024.2.4,120,2026-03-24 18h22.38.630578 -0400,
1,1,0,3,1,flat_comp,88,1.9,-0.02,3.0,-0.168,curv,curv_flat,0.2,0.2,-0.02,pen,input_data/stims/Shape_1.90_3.00.png,input_data/stims/Shape_0.00_2.00.png,input_data/stims/Shape_4.00_2.00.png,-1,1,-1.0,1.0,-1,None,,,up,0.8809173739864491,None,None,None,['right'],[0.6131579579669051],[0.8320930830086581],up,1.6245214159716852,None,1,0,1,0,0,1,1,8,280.6355689589982,,,,,,,,,,,,,,,,,280.6258320839843,0.000842957990244031,281.51780433399836,281.51784691697685,281.54978420899715,282.6029659169726,282.5871019170154,282.58741412498057,0.00033129198709502816,283.9293981670053,283.93068350001704,283.9924335840042,283.9924335840042,283.9924335840042,283.9924335840042,283.9924335840042,283.9924335840042,283.9924335840042,285.6288027089904,"[-0.168, -0.168, -0.168, -0.168, -0.168, -0.168, -0.168, -0.168, -0.168, -0.168, -0.168, -0.168, -0.168, -0.168, -0.168, -0.168, -0.168, -0.168, -0.168, -0.168, -0.168, -0.168, -0.168, -0.168, -0.168, -0.168, -0.168, -0.168, -0.168, -0.168, -0.168, -0.168, -0.168, -0.168, -0.168, -0.168, -0.168, -0.168, -0.168, -0.168, -0.168, -0.168, -0.168, -0.168, -0.168, -0.168, -0.168, -0.168, -0.168, -0.168, -0.168, -0.168, -0.168, -0.168, -0.168, -0.168, -0.168, -0.168, -0.164, -0.16, -0.156, -0.152, -0.148, -0.144, -0.14, -0.136, -0.132, -0.128, -0.124, -0.12, -0.116, -0.112, -0.108, -0.104, -0.1, -0.096, -0.092, -0.088, -0.084, -0.08, -0.076, -0.072, -0.068, -0.064, -0.06, -0.056, -0.052, -0.048, -0.044, -0.04, -0.036, -0.032, -0.028, -0.024, -0.02, -0.016, -0.012, -0.008, -0.004, 0.0, 0.004, 0.008, 0.012, 0.016, 0.02, 0.024, 0.028, 0.032, 0.036, 0.04, 0.044, 0.048, 0.052, 0.056, 0.06, 0.064, 0.068, 0.072, 0.076, 0.08, 0.084, 0.088, 0.088, 0.088, 0.088, 0.088, 0.088, 0.088, 0.088, 0.088, 0.088, 0.088, 0.088, 0.088, 0.088, 0.088, 0.088, 0.088, 0.088, 0.088]",None,None,['right'],[0.6131579579669051],[0.8320930830086581],up,1.6245214159716852,None,285.6292285419768,285.6383765839855,286.0031097920146,285.9868845840101,285.9869940839708,286.0031097920146,286.0031097920146,287.1765899999882,287.1765899999882,287.17029779200675,1,1,,,,,,,,,,,,,,,,daria,patients,C,2026-03-24_18h21.29.641,asymmetry_final,2024.2.4,120,2026-03-24 18h22.38.630578 -0400,
2,2,0,3,1,flat_comp,83,1.3,-0.14,3.0,-0.064,curv,flat_curv,0.2,-0.2,0.14,pen,input_data/stims/Shape_1.30_3.00.png,input_data/stims/Shape_4.00_2.00.png,input_data/stims/Shape_0.00_2.00.png,-1,-1,1.0,1.0,-1,None,,,up,0.8809173739864491,None,None,None,['left'],[0.6410516669857316],[0.2877703330013901],up,1.326537124987226,None,1,0,1,0,0,2,2,3,287.1765899999882,,,,,,,,,,,,,,,,,287.1712374589988,0.0009313749615103006,288.16318324999884,288.1632320419885,288.2012477500248,289.4532715419773,289.43726724997396,289.4375649999711,0.00031887501245364547,290.8295569589827,290.83084995899117,290.8923928340082,290.8923928340082,290.8923928340082,290.8923928340082,290.8923928340082,290.8923928340082,290.8923928340082,292.222825291974,"[-0.064, -0.064, -0.064, -0.064, -0.064, -0.064, -0.064, -0.064, -0.064, -0.064, -0.064, -0.064, -0.064, -0.064, -0.064, -0.064, -0.064, -0.064, -0.064, -0.064, -0.064, -0.064, -0.064, -0.064, -0.064, -0.064, -0.064, -0.064, -0.064, -0.064, -0.064, -0.064, -0.064, -0.064, -0.064, -0.064, -0.064, -0.064, -0.064, -0.064, -0.064, -0.064, -0.064, -0.064, -0.064, -0.064, -0.064, -0.064, -0.064, -0.064, -0.064, -0.064, -0.064, -0.068, -0.072, -0.076, -0.08, -0.084, -0.088, -0.092, -0.096, -0.1, -0.104, -0.108, -0.112, -0.116, -0.12, -0.124, -0.128, -0.132, -0.136, -0.14, -0.144, -0.144, -0.144, -0.144, -0.144, -0.144, -0.144, -0.144, -0.144, -0.144, -0.144, -0.144, -0.144, -0.144, -0.144, -0.144, -0.144, -0.144, -0.144, -0.144, -0.144, -0.144, -0.144, -0.144, -0.144, -0.144, -0.144, -0.144, -0.144, -0.144, -0.144, -0.144, -0.144, -0.144, -0.144, -0.144]",None,None,['left'],[0.6410516669857316],[0.2877703330013901],up,1.326537124987226,None,292.2231493750005,292.23036220902577,292.6781581250252,292.67025087500224,292.6703740420053,292.6781581250252,292.6781581250252,293.79290645901347,293.79290645901347,293.78651025000727,1,1,,,,,,,,,,,,,,,,daria,patients,C,2026-03-24_18h21.29.641,asymmetry_final,2024.2.4,120,2026-03-24 18h22.38.630578 -0400,
3,3,0,3,1,flat_comp,97,2.7,0.14,1.0,0.216,curv,flat_curv,0.2,-0.2,-0.14,pen,input_data/stims/Shape_2.70_1.00.png,input_data/stims/Shape_4.00_2.00.png,input_data/stims/Shape_0.00_2.00.png,-1,-1,1.0,-1.0,-1,None,,,up,0.8809173739864491,None,None,None,['left'],[0.4255907909828238],[1.51919566700235],up,2.0877047079848126,None,1,0,1,0,0,3,3,17,293.79290645901347,,,,,,,,,,,,,,,,,293.78740554198157,0.0008900420507416129,294.6794401250081,294.6794964169967,294.7111885420163,296.0691799999913,296.05667866702424,296.0569404999842,0.0002733339788392186,297.3989204170066,297.40010729199275,297.46261741698254,297.46261741698254,297.46261741698254,297.46261741698254,297.46261741698254,297.46261741698254,297.46261741698254,299.55807358399034,"[0.216, 0.216, 0.216, 0.216, 0.216, 0.216, 0.216, 0.216, 0.216, 0.216, 0.216, 0.216, 0.216, 0.216, 0.216, 0.216, 0.216, 0.216, 0.216, 0.216, 0.216, 0.216, 0.216, 0.216, 0.216, 0.216, 0.216, 0.216, 0.216, 0.216, 0.216, 0.216, 0.216, 0.216, 0.216, 0.216, 0.216, 0.216, 0.216, 0.212, 0.208, 0.204, 0.2, 0.196, 0.192, 0.188, 0.184, 0.18, 0.176, 0.172, 0.168, 0.164, 0.16, 0.156, 0.152, 0.148, 0.144, 0.14, 0.136, 0.132, 0.128, 0.124, 0.12, 0.116, 0.112, 0.108, 0.104, 0.1, 0.096, 0.092, 0.088, 0.084, 0.08, 0.076, 0.072, 0.068, 0.064, 0.06, 0.056, 0.052, 0.048, 0.044, 0.04, 0.036, 0.032, 0.028, 0.024, 0.02, 0.016, 0.012, 0.008, 0.004, 0.0, -0.004, -0.008, -0.012, -0.016, -0.02, -0.024, -0.028, -0.032, -0.036, -0.04, -0.044, -0.048, -0.052, -0.056, -0.06, -0.064, -0.068, -0.072, -0.076, -0.08, -0.084, -0.088, -0.092, -0.096, -0.1, -0.104, -0.108, -0.112, -0.116, -0.12, -0.124, -0.128, -0.132, -0.136, -0.14, -0.144, -0.148, -0.152, -0.156, -0.16, -0.164, -0.168, -0.172, -0.176, -0.18, -0.184, -0.188, -0.192, -0.196, -0.2, -0.204, -0.208, -0.212, -0.216, -0.22, -0.224, -0.228, -0.232, -0.236, -0.24, -0.24, -0.24, -0.24, -0.24, -0.24, -0.24, -0.24, -0.24, -0.24, -0.24, -0.24, -0.24, -0.24]",None,None,['left'],[0.4255907909828238],[1.51919566700235],up,2.0877047079848126,None,299.558537083969,299.56622033397434,299.835719041992,299.8249038339709,299.82501208398025,299.835719041992,,300.89173637499334,,300.88605550001375,0,-5,,,299.835719041992,300.89173637499334,,,,,,,,,,,,daria,patients,C,2026-03-24_18h21.29.641,asymmetry_final,2024.2.4,120,2026-03-24 18h22.38.630578 -0400,
4,4,0,3,1,flat_comp,106,3.3,0.26,1.0,0.392,flat,curv_flat,0.2,0.2,0.26,rew,input_data/stims/Shape_3.30_1.00.png,input_data/stims/Shape_0.00_2.00.png,input_data/stims/Shape_4.00_2.00.png,1,1,1.0,-1.0,1,None,,,up,0.8809173739864491,None,None,None,"['right', 'left']","[0.4969624169752933, 0.6986739999847487]","[0.09941287501715124, 0.44789562496589497]",up,1.2114747499581426,None,1,0,1,0,0,4,4,26,300.89173637499334,,,,,,,,,,,,,,,,,300.8868819170166,0.0008190419757738709,301.8788933340111,301.8789411250036,301.9106418340234,303.00943508400815,303.00409666699125,303.00444616697496,0.0003488750080578029,304.2964652089868,304.2977814169717,304.3613764590118,304.3613764590118,304.3613764590118,304.3613764590118,304.3613764590118,304.3613764590118,304.3613764590118,305.5790393750067,"[0.392, 0.392, 0.392, 0.392, 0.392, 0.392, 0.392, 0.392, 0.392, 0.392, 0.392, 0.392, 0.392, 0.392, 0.392, 0.392, 0.392, 0.392, 0.392, 0.392, 0.392, 0.392, 0.392, 0.392, 0.392, 0.392, 0.392, 0.392, 0.392, 0.392, 0.392, 0.392, 0.392, 0.392, 0.392, 0.392, 0.392, 0.392, 0.392, 0.392, 0.392, 0.392, 0.392, 0.392, 0.392, 0.392, 0.392, 0.392, 0.392, 0.396, 0.4, 0.4, 0.4, 0.4, 0.4, 0.4, 0.4, 0.4, 0.4, 0.4, 0.4, 0.4, 0.4, 0.4, 0.396, 0.392, 0.388, 0.384, 0.38, 0.376, 0.372, 0.368, 0.364, 0.36, 0.356, 0.352, 0.348, 0.344, 0.34, 0.336, 0.332, 0.328, 0.324, 0.32, 0.316, 0.312, 0.308, 0.304, 0.3, 0.296, 0.292, 0.288, 0.284, 0.28, 0.276, 0.272, 0.268, 0.264, 0.26, 0.256, 0.256, 0.256, 0.256, 0.256, 0.256, 0.256, 0.256]",None,None,"['right', 'left']","[0.4969624169752933, 0.6986739999847487]","[0.09941287501715124, 0.44789562496589497]",up,1.2114747499581426,None,305.5792753340211,305.5851839170209,305.86038437497336,305.8533995419857,305.8535248339758,305.86038437497336,,306.8940199589706,,306.8869968749932,1,5,305.86038437497336,306.8940199589706,,,,,,,,,,,,,,daria,patients,C,2026-03-24_18h21.29.641,asymmetry_final,2024.2.4,120,2026-03-24 18h22.38.630578 -0400,
